"Time (s)","Acceleration x (m/s^2)","Acceleration y (m/s^2)","Acceleration z (m/s^2)","Absolute acceleration (m/s^2)"
2.120083314E-3,-5.381010132E0,5.915698242E0,4.874164124E0,9.365267302E0
1.207908330E-2,-5.390590210E0,5.908662872E0,4.884492645E0,9.371714259E0
2.203908330E-2,-5.446573792E0,5.859714661E0,4.898862762E0,9.380846355E0
3.199808334E-2,-5.584137726E0,5.775140533E0,4.968318329E0,9.445582530E0
4.195708333E-2,-5.637875977E0,5.723647614E0,5.049150238E0,9.488925422E0
5.191608332E-2,-5.580096130E0,5.751489716E0,5.173691254E0,9.538563202E0
6.187608332E-2,-5.514382782E0,5.882467346E0,5.274880829E0,9.635154763E0
7.183508330E-2,-5.434449005E0,6.064488831E0,5.370382233E0,9.754602303E0
8.179408329E-2,-5.315446472E0,6.196963348E0,5.462740173E0,9.823332232E0
9.175408335E-2,-5.178930359E0,6.284082184E0,5.587430878E0,9.875747687E0
1.017130833E-1,-5.096601562E0,6.336772614E0,5.707630920E0,9.935143953E0
1.116720833E-1,-5.040318604E0,6.379583588E0,5.792504425E0,9.982835564E0
1.216310833E-1,-4.962480469E0,6.486611023E0,5.833818512E0,1.003672125E1
1.315910833E-1,-4.911586304E0,6.646777954E0,5.840704193E0,1.012013649E1
1.415500833E-1,-4.777614899E0,6.883884888E0,5.843847656E0,1.021587151E1
1.515090833E-1,-4.581672363E0,7.162455597E0,5.803731079E0,1.029445415E1
1.614680833E-1,-4.394860840E0,7.444020081E0,5.759872284E0,1.038770261E1
1.714280833E-1,-4.273762665E0,7.719297638E0,5.796096954E0,1.055686238E1
1.813870833E-1,-4.186793518E0,8.010142822E0,5.964496765E0,1.082898193E1
1.913460833E-1,-4.185895386E0,8.294701080E0,6.246061249E0,1.119540385E1
2.013060833E-1,-4.216431885E0,8.468489685E0,6.579717407E0,1.152329365E1
2.112650833E-1,-4.152065735E0,8.480015717E0,6.876400452E0,1.168054791E1
2.212240833E-1,-4.075874176E0,8.314759369E0,7.195087738E0,1.172677540E1
2.311830833E-1,-4.096980286E0,8.143665161E0,7.404202881E0,1.174422198E1
2.411430833E-1,-3.989503784E0,8.129893799E0,7.572453003E0,1.180480233E1
2.511020833E-1,-3.867058411E0,8.238268433E0,7.588020630E0,1.184910396E1
2.610610834E-1,-3.617078247E0,8.392298126E0,7.544910278E0,1.185072124E1
2.710200833E-1,-3.322191467E0,8.626411285E0,7.418123932E0,1.185244660E1
2.809800833E-1,-3.076402588E0,8.860374756E0,7.266339569E0,1.186466116E1
2.909390833E-1,-2.881208496E0,9.024583282E0,7.195387115E0,1.189613641E1
3.008980833E-1,-2.646346893E0,9.005123749E0,7.148534546E0,1.179817578E1
3.108580833E-1,-2.182461548E0,8.951984253E0,7.111561432E0,1.163939287E1
3.208170833E-1,-1.616189117E0,8.916058960E0,6.987020416E0,1.144231746E1
3.307760833E-1,-9.705816650E-1,8.985664215E0,6.825057220E0,1.132544022E1
3.407350833E-1,-5.059478760E-1,9.125623169E0,6.764283600E0,1.137051072E1
3.506950833E-1,-6.993457031E-1,9.116043091E0,6.926695862E0,1.147041593E1
3.606540833E-1,-1.209484863E0,8.928183746E0,7.144642639E0,1.149874937E1
3.706130833E-1,-1.476529541E0,8.787476349E0,7.387288055E0,1.157462331E1
3.805730833E-1,-1.232985992E0,8.640332336E0,7.455246735E0,1.147851477E1
3.905320833E-1,-3.881428528E-1,8.319549408E0,7.406747589E0,1.114564790E1
4.004910833E-1,3.900888062E-1,7.874075775E0,7.393574982E0,1.080824637E1
4.104500833E-1,1.021924896E0,7.670948181E0,7.295828247E0,1.063564226E1
4.204100833E-1,1.635948029E0,7.514373779E0,7.374863892E0,1.065508126E1
4.303690833E-1,2.392923889E0,7.478897552E0,7.391030273E0,1.078365995E1
4.403280834E-1,2.809357910E0,7.418423309E0,7.815547485E0,1.113590045E1
4.502880833E-1,3.042872314E0,7.397616577E0,8.391849060E0,1.159340043E1
4.602470833E-1,2.962788849E0,7.198380890E0,9.117989044E0,1.198885021E1
4.702052916E-1,2.921175385E0,6.743327179E0,9.823771362E0,1.226834181E1
4.801642916E-1,3.098556519E0,6.319408722E0,1.041608963E1,1.257103426E1
4.901242917E-1,3.467688904E0,5.991590424E0,1.100391724E1,1.300039294E1
5.000832917E-1,3.512296143E0,5.719156952E0,1.167497177E1,1.346662342E1
5.100422917E-1,2.966231689E0,5.579197998E0,1.244886246E1,1.396066464E1
5.200012916E-1,2.421364746E0,5.380860443E0,1.294193710E1,1.422358613E1
5.299612916E-1,2.008074188E0,5.066065063E0,1.310943878E1,1.419699836E1
5.399202916E-1,1.836979980E0,4.352049866E0,1.299762131E1,1.382942490E1
5.498792917E-1,1.879192200E0,3.446433105E0,1.263612305E1,1.323181281E1
5.598392917E-1,1.914668427E0,2.806214447E0,1.224393860E1,1.270648760E1
5.697982917E-1,1.913021851E0,2.543959808E0,1.208272385E1,1.249494296E1
5.797572916E-1,2.084864502E0,2.436034241E0,1.212493607E1,1.254173024E1
5.897172916E-1,2.223775635E0,2.152823181E0,1.230815506E1,1.269135559E1
5.996762916E-1,1.867666168E0,1.835632782E0,1.280572037E1,1.307073826E1
6.096352917E-1,1.455573120E0,1.589843903E0,1.330463287E1,1.347811384E1
6.195942917E-1,1.293310547E0,1.085542603E0,1.336735245E1,1.347357289E1
6.295542917E-1,1.168320465E0,5.432203674E-1,1.321901093E1,1.328165317E1
6.395132917E-1,1.305135956E0,1.441502380E-1,1.275437714E1,1.282178986E1
6.494722916E-1,1.523082733E0,-1.685494995E-1,1.193004135E1,1.202805373E1
6.594322916E-1,1.583556976E0,-4.580474854E-1,1.101993393E1,1.114254926E1
6.693912917E-1,1.354084167E0,-7.713459778E-1,1.043704605E1,1.055274603E1
6.793502917E-1,1.109043732E0,-9.704319763E-1,9.879605255E0,9.988909661E0
6.893092917E-1,1.034049683E0,-1.264420624E0,9.273216248E0,9.415973547E0
6.992692917E-1,1.166524200E0,-1.603914642E0,8.650511169E0,8.874945881E0
7.092282916E-1,1.366059265E0,-1.789079590E0,8.106392670E0,8.413116296E0
7.191872916E-1,1.516646118E0,-1.920057220E0,7.741301880E0,8.118780079E0
7.291472917E-1,1.537602539E0,-1.928888855E0,7.418572998E0,7.817931895E0
7.391062917E-1,1.092428284E0,-1.894310760E0,6.993457031E0,7.327363377E0
7.490652917E-1,2.999761963E-1,-2.025138702E0,6.403833160E0,6.723113239E0
7.590252917E-1,-5.550457764E-1,-2.293081512E0,5.845194855E0,6.303380167E0
7.689842916E-1,-1.200952606E0,-2.699486389E0,5.353018341E0,6.114271771E0
7.789432916E-1,-1.668131104E0,-3.035238190E0,5.044060822E0,6.118650327E0
7.889022917E-1,-2.176923065E0,-2.919678497E0,5.217100983E0,6.362519880E0
7.988622917E-1,-2.495909729E0,-2.604434052E0,5.486840057E0,6.566434034E0
8.088212917E-1,-2.837050323E0,-2.403402100E0,5.483546906E0,6.625291153E0
8.187802917E-1,-3.323987732E0,-2.310894470E0,5.562732239E0,6.879906806E0
8.287402916E-1,-3.839066620E0,-2.165397034E0,5.840255127E0,7.316826961E0
8.386992916E-1,-4.599185944E0,-2.010469208E0,5.518574066E0,7.459836292E0
8.486582917E-1,-4.334236908E0,-1.871558075E0,6.276597748E0,7.853917398E0
8.586182917E-1,-4.642895050E0,-1.805395660E0,6.772516479E0,8.407312734E0
8.685772917E-1,-5.103187866E0,-1.746567993E0,7.429051208E0,9.180622420E0
8.785362917E-1,-5.606890411E0,-1.588796082E0,8.283025360E0,1.012768494E1
8.884952916E-1,-6.591542816E0,-1.286125488E0,8.635691986E0,1.093973179E1
8.984552916E-1,-7.559430084E0,-8.580157471E-1,8.896300049E0,1.170578185E1
9.084142917E-1,-8.405620422E0,-6.179150391E-1,8.635691986E0,1.206695694E1
9.183732917E-1,-9.175319824E0,-4.481680298E-1,7.774682465E0,1.203465977E1
9.283332917E-1,-9.452094269E0,-4.052073669E-1,6.962770844E0,1.174676368E1
9.382922917E-1,-9.277706909E0,-5.059478760E-1,6.462660828E0,1.131803047E1
9.482512916E-1,-8.628207550E0,-3.766168213E-1,6.054459686E0,1.054724077E1
9.582112916E-1,-7.695048065E0,2.829116821E-2,5.963448944E0,9.735362778E0
9.681702916E-1,-6.782096558E0,6.809339905E-1,6.120023346E0,9.160523488E0
9.781292917E-1,-6.284680939E0,1.618284760E0,6.475534058E0,9.167802430E0
9.880892917E-1,-6.140830078E0,2.553240509E0,6.831044769E0,9.533729794E0
9.980482917E-1,-6.499783630E0,3.261567535E0,6.995552673E0,1.009072679E1
1.008007292E0,-6.983577576E0,3.476071472E0,7.073989563E0,1.053065796E1
1.017966292E0,-7.417076111E0,3.344944153E0,7.110363922E0,1.080550529E1
1.027926292E0,-7.789651337E0,3.226390686E0,7.306306458E0,1.115662937E1
1.037885292E0,-8.181087341E0,3.398532715E0,7.746540985E0,1.176813970E1
1.047844292E0,-8.148604889E0,3.792962494E0,8.626261597E0,1.245787764E1
1.057804292E0,-7.800129547E0,4.363575897E0,9.844877472E0,1.329678262E1
1.067763292E0,-7.200775909E0,4.988825684E0,1.056023987E1,1.372072234E1
1.077722292E0,-6.486311646E0,5.319937134E0,1.039513321E1,1.335787275E1
1.087682292E0,-6.432124329E0,5.282215576E0,9.961784363E0,1.298118533E1
1.097641292E0,-7.410938873E0,4.755011902E0,1.050695068E1,1.370868943E1
1.107600292E0,-7.759264526E0,3.700903931E0,1.188393723E1,1.466733922E1
1.117560292E0,-6.794221344E0,3.491339722E0,1.365894608E1,1.564984679E1
1.127519292E0,-4.990621948E0,4.361929321E0,1.478101273E1,1.619910714E1
1.137478292E0,-2.900668030E0,5.601651306E0,1.490181152E1,1.618197636E1
1.147438292E0,-1.098266144E0,6.836732941E0,1.487396942E1,1.640676910E1
1.157397292E0,-2.309696960E-1,7.481142883E0,1.490869720E1,1.668202920E1
1.167356292E0,-3.929328918E-1,7.351362762E0,1.547422119E1,1.713617379E1
1.177316292E0,-6.798861694E-1,7.112758942E0,1.626607452E1,1.776622541E1
1.187275292E0,-4.924758911E-2,7.184908905E0,1.674717407E1,1.822342396E1
1.197234292E0,1.390907593E0,7.598798218E0,1.719998245E1,1.885512542E1
1.207194292E0,3.107837219E0,8.379275208E0,1.733904327E1,1.950675080E1
1.217153292E0,4.330943756E0,9.138197021E0,1.741164230E1,2.013526772E1
1.227112292E0,4.646936646E0,9.470805359E0,1.753408768E1,2.046300088E1
1.237072292E0,4.068988495E0,9.284891968E0,1.725327164E1,2.001102867E1
1.247031292E0,3.518583069E0,8.963659973E0,1.715956650E1,1.967684805E1
1.256990292E0,4.046834564E0,9.109307098E0,1.721659790E1,1.989390834E1
1.266950292E0,5.350323944E0,9.357041931E0,1.722408234E1,2.031869121E1
1.276909292E0,6.559958496E0,9.770033112E0,1.698128723E1,2.066036589E1
1.286868292E0,7.205715637E0,1.016521133E1,1.604228989E1,2.031277736E1
1.296828292E0,7.255861359E0,1.024858795E1,1.466530334E1,1.930679158E1
1.306787292E0,6.900051270E0,9.827513580E0,1.357556946E1,1.812420527E1
1.316746292E0,6.738387451E0,9.280700684E0,1.266022293E1,1.708269637E1
1.326706292E0,6.791077881E0,9.232949982E0,1.190010361E1,1.652206313E1
1.336665292E0,7.169041901E0,9.538015594E0,1.159024796E1,1.663438460E1
1.346624292E0,7.967780914E0,9.852810974E0,1.152169052E1,1.712637642E1
1.356584292E0,8.793014832E0,9.935139771E0,1.143397293E1,1.751456106E1
1.366543292E0,9.502988434E0,9.827363892E0,1.104942261E1,1.757764518E1
1.376502292E0,9.784253540E0,9.095386047E0,1.068088898E1,1.710377309E1
1.386462292E0,1.000788849E1,8.076903992E0,1.049228119E1,1.659765570E1
1.396421292E0,1.036459671E1,7.349566498E0,1.065783691E1,1.658404294E1
1.406380292E0,1.081231567E1,6.874005432E0,1.082488953E1,1.677308422E1
1.416340292E0,1.097382980E1,6.543043671E0,1.059002792E1,1.659472966E1
1.426299292E0,1.045306274E1,6.404581604E0,1.011042526E1,1.589043377E1
1.436258292E0,9.676028595E0,6.315067749E0,1.005968079E1,1.532001265E1
1.446218292E0,8.970096588E0,6.047723694E0,1.027178970E1,1.491801791E1
1.456177292E0,8.415499878E0,5.604645081E0,1.047910858E1,1.456174445E1
1.466136792E0,8.005352783E0,5.004692688E0,1.063134201E1,1.421822967E1
1.476096792E0,7.749983826E0,4.412224731E0,1.060784088E1,1.385843658E1
1.486055792E0,7.573949890E0,3.840264130E0,1.059047699E1,1.357462885E1
1.496014792E0,7.356751556E0,3.533402252E0,1.049153275E1,1.329206471E1
1.505974792E0,6.936275940E0,3.438499603E0,1.034229309E1,1.291890978E1
1.515933792E0,6.541995850E0,3.314707031E0,1.051608170E1,1.282080211E1
1.525892792E0,6.104156342E0,3.090323639E0,1.068807404E1,1.269038027E1
1.535852792E0,5.632337494E0,2.913690948E0,1.080348404E1,1.252709416E1
1.545811792E0,5.215604095E0,2.899171143E0,1.104538101E1,1.255420890E1
1.555770792E0,5.161416779E0,2.776426392E0,1.112321915E1,1.257277896E1
1.565730792E0,5.343438263E0,2.631378021E0,1.082668579E1,1.235692551E1
1.575689792E0,5.476810913E0,2.519710236E0,1.031490005E1,1.194744996E1
1.585648792E0,5.444627838E0,2.276915131E0,9.645791473E0,1.130794446E1
1.595608792E0,5.025200043E0,1.893262939E0,9.105415192E0,1.057098226E1
1.605567792E0,4.198469238E0,1.354233856E0,8.657845917E0,9.716963991E0
1.615526792E0,3.375330963E0,7.391629028E-1,8.231981506E0,8.927751141E0
1.625486792E0,2.664758606E0,2.409988403E-1,7.550897827E0,8.010934831E0
1.635445792E0,2.188598785E0,1.008901978E-1,6.965764618E0,7.302192834E0
1.645405792E0,1.719324646E0,4.167333984E-1,6.732998657E0,6.961538255E0
1.655364792E0,1.582808533E0,8.638536072E-1,6.486461334E0,6.732436895E0
1.665323792E0,1.679806824E0,9.285191345E-1,6.135590973E0,6.428792681E0
1.675283792E0,1.558708649E0,8.536747742E-1,5.416935425E0,5.701010671E0
1.685242792E0,1.245709534E0,7.292834473E-1,4.528233490E0,4.752740802E0
1.695201792E0,8.261320496E-1,5.158273315E-1,3.872147827E0,3.992756040E0
1.705161792E0,6.436614990E-2,3.694317627E-1,3.434757385E0,3.455167308E0
1.715120792E0,-6.677613831E-1,5.134323120E-1,3.255579987E0,3.362784420E0
1.725079792E0,-9.282197571E-1,6.361770630E-1,3.088677063E0,3.287284468E0
1.735039792E0,-9.819580078E-1,8.309220886E-1,3.294798431E0,3.537000106E0
1.744998792E0,-9.839039612E-1,1.202150116E0,3.463048553E0,3.795515405E0
1.754957792E0,-1.063089294E0,1.554667053E0,3.514242096E0,3.987109981E0
1.764917792E0,-1.245260468E0,1.770817566E0,3.625760193E0,4.222866972E0
1.774876792E0,-1.610800323E0,1.887125702E0,3.780538330E0,4.521989735E0
1.784835792E0,-2.192490692E0,1.933529205E0,3.673211517E0,4.694468391E0
1.794795792E0,-2.764750671E0,1.971550140E0,3.685186615E0,5.011133267E0
1.804754792E0,-3.206182709E0,2.168690186E0,3.986060944E0,5.556213326E0
1.814713792E0,-3.551813965E0,2.379451904E0,4.206103363E0,5.997372700E0
1.824673792E0,-3.767515411E0,2.516417084E0,4.269421692E0,6.225310345E0
1.834632792E0,-3.802093506E0,2.630180511E0,4.464316406E0,6.426809903E0
1.844592792E0,-3.517984314E0,2.755320282E0,5.038522339E0,6.734590622E0
1.854551792E0,-3.137774963E0,2.972368927E0,5.531746674E0,7.020030628E0
1.864510792E0,-3.010090485E0,3.400927734E0,5.731132050E0,7.312511795E0
1.874470792E0,-3.257525940E0,3.991599426E0,5.450914764E0,7.500454186E0
1.884429792E0,-3.913611603E0,4.530628510E0,5.085374908E0,7.855188631E0
1.894388792E0,-4.624333649E0,4.912783813E0,5.241949310E0,8.543883137E0
1.904348792E0,-4.976551208E0,5.150190125E0,6.005212097E0,9.346287636E0
1.914307792E0,-5.278323669E0,5.339396667E0,6.930737457E0,1.021787548E1
1.924266792E0,-5.558540955E0,5.859564972E0,7.857909393E0,1.126847901E1
1.934226792E0,-5.372777252E0,6.528972931E0,8.444090424E0,1.194976510E1
1.944185792E0,-4.860093384E0,7.195686493E0,8.884324951E0,1.242294819E1
1.954145792E0,-4.218976593E0,7.886050873E0,8.895252228E0,1.261408237E1
1.964104792E0,-3.856879578E0,8.357270966E0,8.683292999E0,1.265381663E1
1.974063792E0,-4.048481140E0,8.561446381E0,8.579708405E0,1.277888727E1
1.984023792E0,-4.916376343E0,8.527467041E0,8.726103973E0,1.315421381E1
1.993982792E0,-6.063890076E0,8.560248871E0,8.937165070E0,1.378120253E1
2.003941792E0,-6.774163055E0,8.782386932E0,9.368268585E0,1.451840424E1
2.013901792E0,-6.866520996E0,9.064699860E0,9.746681671E0,1.497717255E1
2.023860792E0,-5.973328400E0,9.599986725E0,9.887987823E0,1.502040946E1
2.033819792E0,-4.320016479E0,1.016057098E1,1.001926483E1,1.490923918E1
2.043779792E0,-2.921474762E0,1.045994843E1,1.009755203E1,1.482923103E1
2.053738792E0,-2.355202332E0,1.046428940E1,9.662406921E0,1.443642747E1
2.063698792E0,-3.234773254E0,1.036938675E1,8.725355530E0,1.393268706E1
2.073657792E0,-4.714296570E0,1.033001862E1,8.097710724E0,1.394656932E1
2.083616792E0,-5.235812073E0,9.981692963E0,8.072712708E0,1.386422060E1
2.093576792E0,-4.496349792E0,9.443112946E0,8.575517120E0,1.352512615E1
2.103535792E0,-2.969225464E0,9.288933563E0,9.459878082E0,1.358638583E1
2.113494792E0,-1.299747162E0,9.562863922E0,9.731563110E0,1.370551092E1
2.123454792E0,-2.826123047E-1,1.010488678E1,9.716743927E0,1.402154482E1
2.133413792E0,4.493655396E-1,1.084614532E1,1.001148102E1,1.476721199E1
2.143373792E0,6.137237549E-1,1.185250259E1,1.047581543E1,1.583038798E1
2.153332792E0,5.936654663E-1,1.286484741E1,1.112830856E1,1.702045796E1
2.163291792E0,1.309626617E0,1.324894867E1,1.184292252E1,1.781865810E1
2.173251792E0,2.364033966E0,1.340163116E1,1.215652039E1,1.824755771E1
2.183210792E0,3.244353333E0,1.377600266E1,1.226279938E1,1.872646059E1
2.193169792E0,4.232298889E0,1.419288574E1,1.256606873E1,1.942309045E1
2.203129792E0,5.097499695E0,1.456291626E1,1.309057800E1,2.023428441E1
2.213088792E0,5.261109467E0,1.492172012E1,1.361882950E1,2.087605138E1
2.223047792E0,5.048850861E0,1.509790375E1,1.394574966E1,2.116415664E1
2.233007792E0,4.849465485E0,1.477921646E1,1.416444489E1,2.103744408E1
2.242966792E0,4.799020386E0,1.431263672E1,1.418839508E1,2.071696699E1
2.252926792E0,5.139262848E0,1.384635635E1,1.358514954E1,2.006713469E1
2.262885792E0,6.182742920E0,1.369053040E1,1.269959106E1,1.967070273E1
2.272844792E0,7.418273621E0,1.382450180E1,1.199740128E1,1.975057647E1
2.282804792E0,8.424930267E0,1.405696838E1,1.194725555E1,2.028089558E1
2.292763792E0,8.632398834E0,1.406729691E1,1.207688599E1,2.045136492E1
2.302722792E0,8.024962006E0,1.354967331E1,1.224408829E1,1.994771566E1
2.312682792E0,7.188351746E0,1.289957520E1,1.215412537E1,1.912574716E1
2.322641792E0,6.736591187E0,1.248194366E1,1.172421936E1,1.840211667E1
2.332601792E0,6.904691620E0,1.233345245E1,1.129012207E1,1.809020929E1
2.342560792E0,7.015910339E0,1.172871002E1,1.082818268E1,1.743660451E1
2.352519792E0,6.840624847E0,1.079435303E1,9.956694946E0,1.620024629E1
2.362479792E0,6.710096283E0,9.930200043E0,9.103469238E0,1.505016336E1
2.372438792E0,6.557114410E0,9.218280487E0,8.327632599E0,1.404713171E1
2.382398792E0,6.499933319E0,8.668773193E0,7.679480438E0,1.328048123E1
2.392357792E0,6.745123444E0,8.207881622E0,7.221432953E0,1.284582052E1
2.402316792E0,7.181915131E0,7.940986633E0,6.978637848E0,1.278047573E1
2.412276792E0,7.649393005E0,7.994126129E0,7.139553223E0,1.316785807E1
2.422235792E0,7.847281494E0,8.202343140E0,7.502398682E0,1.360677206E1
2.432194792E0,7.801925812E0,8.346194000E0,7.924969940E0,1.390446508E1
2.442154792E0,7.432793427E0,8.287965088E0,8.334218903E0,1.390668861E1
2.452113792E0,6.944359131E0,8.015830994E0,8.554261322E0,1.362545621E1
2.462073792E0,6.739285583E0,7.606432343E0,8.556057587E0,1.328464921E1
2.472032792E0,6.755901031E0,7.096742249E0,8.602012024E0,1.303842629E1
2.481991792E0,6.759643250E0,6.703659668E0,8.648714905E0,1.286204102E1
2.491951792E0,6.648424530E0,6.515351257E0,8.980724487E0,1.293463425E1
2.501910792E0,6.020330658E0,6.301296387E0,9.226064301E0,1.269137423E1
2.511869792E0,5.053341522E0,6.047574005E0,9.209448853E0,1.212119466E1
2.521829792E0,4.349205780E0,5.665718079E0,9.061107330E0,1.153774754E1
2.531788792E0,4.123475189E0,5.380411377E0,8.925938416E0,1.120822246E1
2.541748792E0,4.254452820E0,5.222040710E0,8.760981445E0,1.105101235E1
2.551707792E0,4.308340759E0,5.049150238E0,8.271798706E0,1.060558212E1
2.561666792E0,4.281696167E0,4.862488403E0,7.810009003E0,1.014755912E1
2.571626792E0,4.406087494E0,4.581223297E0,7.393874359E0,9.750414962E0
2.581585792E0,4.341721344E0,4.161496124E0,6.899153137E0,9.152426358E0
2.591545792E0,4.037853241E0,3.805536346E0,6.282136230E0,8.381622832E0
2.601504792E0,3.599714355E0,3.604953461E0,5.764961700E0,7.693400828E0
2.611463792E0,3.289110260E0,3.589236145E0,5.422473907E0,7.287255017E0
2.621423792E0,3.434607697E0,3.736080780E0,5.363496552E0,7.383896321E0
2.631382792E0,3.733536072E0,3.897594910E0,5.522465973E0,7.721927745E0
2.641341792E0,3.883374481E0,4.032913513E0,5.815855865E0,8.072742298E0
2.651301792E0,3.645219727E0,4.142485657E0,5.898783417E0,8.077342389E0
2.661260792E0,2.963537292E0,4.213887177E0,5.734574890E0,7.708744878E0
2.671220792E0,2.107018433E0,4.105961609E0,5.421725464E0,7.119940619E0
2.681179792E0,1.271905060E0,3.857328644E0,5.088218994E0,6.510506837E0
2.691138792E0,8.250842285E-1,3.510948944E0,4.606071625E0,5.850078827E0
2.701098792E0,6.113287354E-1,3.253184967E0,4.204307098E0,5.350993686E0
2.711057792E0,3.212319946E-1,3.152145081E0,3.799099731E0,4.946955364E0
2.721017792E0,4.251159668E-2,3.129991150E0,3.322640533E0,4.564930662E0
2.730976792E0,-2.835104370E-1,3.200344849E0,2.988235931E0,4.387725983E0
2.740935792E0,-6.840774536E-1,3.221301270E0,2.885549469E0,4.378485991E0
2.750895792E0,-9.638456726E-1,3.123853912E0,2.911894684E0,4.377966697E0
2.760854792E0,-1.045426025E0,3.108885040E0,2.878514099E0,4.363934599E0
2.770814792E0,-1.003064117E0,3.266507263E0,2.712808685E0,4.362973560E0
2.780773792E0,-7.979905701E-1,3.529510345E0,2.691852264E0,4.510022266E0
2.790732792E0,-8.202941895E-1,3.778742065E0,2.659519501E0,4.693060636E0
2.800692792E0,-1.250050507E0,3.963457947E0,2.533631287E0,4.867331164E0
2.810651792E0,-2.074985046E0,4.095034332E0,2.330503693E0,5.148409132E0
2.820610792E0,-2.944826202E0,4.208648071E0,2.324665833E0,5.638154945E0
2.830570792E0,-3.584146729E0,4.231700134E0,2.965782623E0,6.288820268E0
2.840529792E0,-3.636837158E0,4.225263519E0,3.726650391E0,6.705770609E0
2.850489792E0,-3.244353333E0,4.396058350E0,4.041745148E0,6.796091627E0
2.860448792E0,-2.898572388E0,4.671635284E0,3.789519653E0,6.677301650E0
2.870407792E0,-2.831811218E0,4.823719025E0,3.501368866E0,6.599015377E0
2.880367792E0,-2.910098419E0,4.828658752E0,3.434907074E0,6.601757703E0
2.890326792E0,-3.366050262E0,4.825066223E0,3.199596405E0,6.696937776E0
2.900286792E0,-4.244872742E0,4.756957855E0,3.273392944E0,7.166777100E0
2.910245792E0,-5.144951019E0,4.539909210E0,3.705544281E0,7.798227686E0
2.920204792E0,-5.655090179E0,4.544998627E0,4.273762665E0,8.420338756E0
2.930164792E0,-5.530100098E0,4.968617706E0,4.529281311E0,8.705375247E0
2.940123792E0,-5.092260590E0,5.464386749E0,4.238885193E0,8.588293668E0
2.950083792E0,-4.687352600E0,5.840704193E0,4.179458771E0,8.576303136E0
2.960042792E0,-4.191882935E0,6.240223389E0,4.318070526E0,8.669371577E0
2.970001792E0,-3.790268097E0,6.344406738E0,4.537813568E0,8.672334235E0
2.979961792E0,-3.660487976E0,6.420298920E0,4.611460419E0,8.711198404E0
2.989920792E0,-3.977378998E0,6.516848145E0,4.832400970E0,9.035538311E0
2.999880792E0,-4.786296844E0,6.703959045E0,5.369633789E0,9.832836386E0
3.009839792E0,-5.600902863E0,6.994055786E0,5.942642212E0,1.075183360E1
3.019798792E0,-5.772446136E0,7.453151093E0,6.199957123E0,1.128317615E1
3.029758792E0,-5.443130951E0,8.026159515E0,6.634802856E0,1.175021362E1
3.039717792E0,-4.928950195E0,8.447383575E0,7.195087738E0,1.214175139E1
3.049677792E0,-4.267625427E0,8.553662567E0,7.435038757E0,1.211022590E1
3.059636792E0,-3.763324127E0,8.469387817E0,7.242239685E0,1.176193752E1
3.069595792E0,-3.504512329E0,8.478818207E0,7.056326294E0,1.157426912E1
3.079555792E0,-3.320844269E0,8.777297516E0,7.162156219E0,1.180531406E1
3.089514792E0,-3.315455475E0,9.229956207E0,7.056026917E0,1.208188116E1
3.099474792E0,-3.305576019E0,9.608069916E0,7.187453613E0,1.244593628E1
3.109433792E0,-3.467389526E0,9.820478210E0,7.864046631E0,1.305020352E1
3.119392792E0,-3.585643616E0,9.877210236E0,8.800349579E0,1.370628596E1
3.129352792E0,-3.512745209E0,9.864187317E0,9.279503174E0,1.399109536E1
3.139311792E0,-2.986888733E0,1.010922775E1,9.493707733E0,1.418620727E1
3.149271792E0,-2.206112366E0,1.050051407E1,9.416019287E0,1.427547361E1
3.159230792E0,-1.301693115E0,1.083731369E1,9.461824036E0,1.444534136E1
3.169189792E0,-8.211923218E-1,1.102247864E1,9.583071899E0,1.462889808E1
3.179149792E0,-8.804690552E-1,1.097308136E1,9.534722443E0,1.456347048E1
3.189108792E0,-1.665885773E0,1.047656387E1,9.550439758E0,1.427390856E1
3.199068792E0,-3.019820251E0,9.577084351E0,9.619296570E0,1.390578029E1
3.209027792E0,-3.672612762E0,9.040150909E0,9.810149689E0,1.383659820E1
3.218986792E0,-2.725382538E0,9.417067108E0,9.974807281E0,1.398590874E1
3.228946792E0,-7.658074951E-1,1.019095779E1,1.026849655E1,1.448737738E1
3.238905792E0,7.946974182E-1,1.112022537E1,1.082204544E1,1.553729783E1
3.248865792E0,9.904902649E-1,1.197674423E1,1.121243362E1,1.643600137E1
3.258824792E0,1.597178650E-1,1.249915787E1,1.142753632E1,1.693644129E1
3.268783792E0,-5.022056580E-1,1.234737350E1,1.163545395E1,1.697332117E1
3.278743792E0,-1.058299255E-1,1.188408691E1,1.188902664E1,1.681046330E1
3.288702792E0,1.152902527E0,1.180445251E1,1.204036194E1,1.690102361E1
3.298662792E0,2.406844940E0,1.204275696E1,1.217463272E1,1.729284764E1
3.308621792E0,3.013533325E0,1.238704102E1,1.234363129E1,1.774501061E1
3.318581792E0,2.963088226E0,1.284673508E1,1.243269608E1,1.812154590E1
3.328540792E0,2.660866699E0,1.303803726E1,1.287457718E1,1.851554387E1
3.338499792E0,1.902843018E0,1.289643173E1,1.337857910E1,1.867953805E1
3.348459792E0,9.577084351E-1,1.238210129E1,1.400472702E1,1.871806658E1
3.358418792E0,4.198768616E-1,1.187256088E1,1.428030396E1,1.857581975E1
3.368378792E0,5.575904846E-1,1.155342453E1,1.445678696E1,1.851462164E1
3.378337792E0,1.255888367E0,1.136781052E1,1.422102722E1,1.824943798E1
3.388296792E0,2.038311310E0,1.136541550E1,1.361344070E1,1.785085853E1
3.398256792E0,2.472258911E0,1.122291183E1,1.293594955E1,1.730331197E1
3.408215792E0,2.673889618E0,1.086320984E1,1.238359818E1,1.668869430E1
3.418175792E0,2.659669189E0,1.039258850E1,1.205577988E1,1.613758236E1
3.428134792E0,2.374961243E0,1.001971390E1,1.158246414E1,1.549801868E1
3.438094792E0,2.173929291E0,9.782008209E0,1.085707260E1,1.477462956E1
3.448053792E0,2.341131592E0,9.537117462E0,1.031939072E1,1.424525645E1
3.458012792E0,3.120261383E0,9.767189026E0,9.935439148E0,1.427749851E1
3.467972292E0,4.183500366E0,1.050784882E1,9.814939728E0,1.497496591E1
3.477931292E0,4.107458496E0,1.002585114E1,9.847422180E0,1.464105973E1
3.487891292E0,3.384312286E0,9.469458160E0,9.579329681E0,1.388840396E1
3.497850292E0,2.863694916E0,9.143436127E0,9.103020172E0,1.321620782E1
3.507809292E0,2.682421875E0,8.859326935E0,8.760382690E0,1.274469952E1
3.517769292E0,2.817890167E0,8.765472107E0,8.636889496E0,1.262417785E1
3.527728292E0,3.077151031E0,8.664282532E0,8.646170197E0,1.262120871E1
3.537688292E0,3.291056213E0,8.575367432E0,8.695567474E0,1.264835449E1
3.547647292E0,3.271746368E0,8.400531006E0,8.610693970E0,1.246664735E1
3.557607292E0,2.880759430E0,8.258476410E0,8.429420929E0,1.214727725E1
3.567566292E0,2.509082336E0,8.180638275E0,8.131390686E0,1.180414551E1
3.577525292E0,2.436632996E0,8.049361267E0,7.845934296E0,1.150165563E1
3.587485292E0,2.662213898E0,7.759563904E0,7.645201721E0,1.121371144E1
3.597444292E0,3.050057373E0,7.595056000E0,7.475155334E0,1.108447892E1
3.607404292E0,3.679049377E0,7.596253510E0,7.481442261E0,1.127876101E1
3.617363292E0,4.184398499E0,7.623945923E0,7.281458130E0,1.134254710E1
3.627323292E0,4.416266327E0,7.661068726E0,7.081324310E0,1.132874822E1
3.637282292E0,4.386777649E0,7.529342651E0,6.825955353E0,1.106925857E1
3.647241292E0,4.395160217E0,7.319479065E0,6.642586670E0,1.081740102E1
3.657201292E0,4.315675507E0,7.045399017E0,6.715036011E0,1.064680285E1
3.667160292E0,4.235142975E0,6.781497803E0,6.954238586E0,1.059653636E1
3.677120292E0,3.939657440E0,6.681954803E0,7.195836182E0,1.058061809E1
3.687079292E0,3.495680695E0,6.736291809E0,7.361840973E0,1.057327354E1
3.697038292E0,2.922223206E0,6.712940369E0,7.522007904E0,1.049683570E1
3.706998292E0,2.632425842E0,6.479425964E0,7.522007904E0,1.027098971E1
3.716957292E0,2.612068176E0,6.136638794E0,7.303612061E0,9.890600840E0
3.726917292E0,2.653232574E0,5.819298706E0,6.809190216E0,9.341785264E0
3.736876292E0,2.603984985E0,5.531746674E0,6.187682648E0,8.698757130E0
3.746836292E0,2.405497742E0,5.176834717E0,5.559738464E0,7.968483473E0
3.756795292E0,2.127675476E0,4.804109802E0,4.828359375E0,7.135792050E0
3.766754292E0,2.002685394E0,4.500541077E0,4.174818420E0,6.457145470E0
3.776714292E0,1.996398468E0,4.138593750E0,3.752546539E0,5.932551778E0
3.786673292E0,2.010020142E0,3.849993896E0,3.493884430E0,5.574034659E0
3.796633292E0,2.070045319E0,3.710933075E0,3.404370575E0,5.444800356E0
3.806592292E0,2.002236328E0,3.670666809E0,3.385360107E0,5.379907824E0
3.816552292E0,1.686991882E0,3.638034668E0,3.788920898E0,5.516988257E0
3.826511292E0,1.238524475E0,3.577410736E0,4.171076202E0,5.632911071E0
3.836470292E0,8.000862122E-1,3.733685760E0,4.219275970E0,5.690591974E0
3.846430292E0,6.256988525E-1,4.052373047E0,4.232598267E0,5.893056461E0
3.856389292E0,4.549040222E-1,4.272565155E0,4.183799744E0,5.997160242E0
3.866349292E0,2.034269714E-1,4.230951691E0,4.120182037E0,5.909165319E0
3.876308292E0,-6.047424316E-2,4.038002930E0,3.861819305E0,5.587734169E0
3.886268292E0,-2.383044434E-1,3.713926849E0,3.497776337E0,5.107296834E0
3.896227292E0,-6.036946106E-1,3.456162872E0,2.981200562E0,4.604027125E0
3.906186292E0,-9.867480469E-1,3.517984314E0,2.354154510E0,4.346484649E0
3.916146292E0,-1.180295563E0,3.587439880E0,2.024989014E0,4.285254137E0
3.926105292E0,-1.432820435E0,3.587589569E0,1.967508545E0,4.335304279E0
3.936065292E0,-1.828896790E0,3.518134003E0,1.992356873E0,4.437523660E0
3.946024292E0,-2.081721039E0,3.429817657E0,2.324067078E0,4.636647434E0
3.955984292E0,-2.352957001E0,3.514242096E0,2.807262268E0,5.076123087E0
3.965943292E0,-2.652184753E0,3.551215210E0,3.239413605E0,5.489901086E0
3.975903292E0,-3.154240723E0,3.733536072E0,3.542832642E0,6.036570985E0
3.985862292E0,-3.727099457E0,4.082161102E0,3.592828674E0,6.592702595E0
3.995821292E0,-4.372706909E0,4.600982208E0,3.520079956E0,7.258137908E0
4.005781292E0,-4.941074982E0,5.311255188E0,3.609743500E0,8.102709533E0
4.015740292E0,-5.151088257E0,5.553002472E0,4.078418884E0,8.602502385E0
4.025700292E0,-5.301675110E0,5.340145111E0,4.398603058E0,8.716227259E0
4.035659292E0,-5.371579742E0,5.278772736E0,4.275409241E0,8.660163665E0
4.045619292E0,-5.110971680E0,5.334307251E0,4.075874176E0,8.437393890E0
4.055578292E0,-4.950505371E0,5.566324768E0,3.581901398E0,8.265681610E0
4.065537292E0,-5.332061920E0,6.213129730E0,3.101250916E0,8.755091239E0
4.075497292E0,-5.857768707E0,6.761589203E0,3.031495972E0,9.445766809E0
4.085456292E0,-6.101012878E0,6.877298584E0,3.400179291E0,9.802082083E0
4.095416292E0,-5.750441895E0,6.498137054E0,4.143982544E0,9.615922134E0
4.105375292E0,-5.315446472E0,6.137836304E0,4.795577545E0,9.429982486E0
4.115335292E0,-5.047054596E0,6.224356384E0,5.292244720E0,9.603292491E0
4.125294292E0,-4.640200653E0,6.567592621E0,5.453609161E0,9.716305256E0
4.135254292E0,-4.137246552E0,7.089108124E0,5.201683044E0,9.717498110E0
4.145213292E0,-3.665128326E0,7.826175385E0,5.093607788E0,1.003130236E1
4.155172292E0,-3.334615631E0,8.344098358E0,5.054239655E0,1.030965457E1
4.165132292E0,-3.381767578E0,8.527467041E0,5.378166046E0,1.063384766E1
4.175091292E0,-3.724405060E0,8.487500153E0,5.736670532E0,1.090037801E1
4.185051292E0,-4.135150909E0,8.145760803E0,6.027665405E0,1.094466273E1
4.195010292E0,-4.543801117E0,7.691305847E0,6.285728760E0,1.092303530E1
4.204970292E0,-4.659510498E0,7.409741364E0,6.184090118E0,1.071719533E1
4.214929292E0,-4.363276520E0,7.473359070E0,5.900729370E0,1.047415318E1
4.224888292E0,-3.771557007E0,7.953261108E0,6.080655212E0,1.069828829E1
4.234848292E0,-2.757864990E0,8.618328094E0,6.754703522E0,1.129191827E1
4.244807292E0,-1.498384094E0,9.149723053E0,7.563771057E0,1.196550122E1
4.254767292E0,-4.824467468E-1,9.591454468E0,8.208031311E0,1.263331040E1
4.264726292E0,-1.297801208E-1,9.995763702E0,8.398884430E0,1.305654604E1
4.274686292E0,-5.210664368E-1,1.053419403E1,8.462352448E0,1.352228394E1
4.284645292E0,-1.592837677E0,1.096604599E1,8.947493591E0,1.424250463E1
4.294605292E0,-2.598147125E0,1.099733093E1,1.006432114E1,1.513215834E1
4.304564292E0,-2.982697449E0,1.068133804E1,1.117845428E1,1.574627914E1
4.314524292E0,-2.792293396E0,1.036983582E1,1.218391342E1,1.624124821E1
4.324483292E0,-2.002535706E0,1.035666321E1,1.263567398E1,1.645997810E1
4.334442292E0,-4.110452271E-1,1.094793365E1,1.277668076E1,1.683062033E1
4.344402292E0,1.645228729E0,1.176987442E1,1.301124298E1,1.762183774E1
4.354361292E0,3.337160339E0,1.256322464E1,1.349623444E1,1.873818552E1
4.364321292E0,4.730912018E0,1.315509384E1,1.404394547E1,1.981591347E1
4.374280292E0,5.476062469E0,1.301693115E1,1.475960724E1,2.042727986E1
4.384240292E0,5.573360138E0,1.243314514E1,1.542766800E1,2.058296337E1
4.394199292E0,5.511239319E0,1.177795761E1,1.588272171E1,2.052693093E1
4.404159292E0,5.783672791E0,1.128608047E1,1.605516312E1,2.045958812E1
4.414118292E0,6.704857178E0,1.129461273E1,1.583482132E1,2.057340401E1
4.424077292E0,7.793842621E0,1.148292114E1,1.525567566E1,2.062370240E1
4.434037292E0,8.845256195E0,1.163051422E1,1.454151077E1,2.061462961E1
4.443996292E0,9.585317230E0,1.167437302E1,1.370475082E1,2.039582033E1
4.453956292E0,9.944719849E0,1.168574936E1,1.291319687E1,2.005504536E1
4.463915292E0,1.007030869E1,1.165431473E1,1.224244171E1,1.967515052E1
4.473875792E0,1.014919464E1,1.151869675E1,1.162093414E1,1.925441863E1
4.483834792E0,1.017943176E1,1.114761841E1,1.138442596E1,1.890754827E1
4.493794792E0,9.688452759E0,1.070962921E1,1.082354233E1,1.804747471E1
4.503753792E0,9.064400482E0,1.040082138E1,1.020907013E1,1.716291218E1
4.513713792E0,8.531358948E0,9.890532532E0,9.733658752E0,1.628959275E1
4.523672792E0,7.843838654E0,9.218130798E0,9.254654846E0,1.523641613E1
4.533632792E0,7.218289490E0,8.666677551E0,8.704249420E0,1.424706850E1
4.543591792E0,7.167095947E0,8.257428589E0,8.315058746E0,1.373654226E1
4.553550792E0,7.472311249E0,8.068222046E0,8.002957764E0,1.360069761E1
4.563510792E0,7.456893311E0,8.025860138E0,7.849377136E0,1.347710689E1
4.573469792E0,7.126081238E0,7.951913910E0,7.835306396E0,1.324409283E1
4.583429792E0,6.864275665E0,7.734116821E0,7.842790833E0,1.297860591E1
4.593388792E0,6.693331146E0,7.270081787E0,7.738008728E0,1.255115732E1
4.603348792E0,6.235133972E0,6.686894531E0,7.307953033E0,1.170459874E1
4.613307792E0,5.562732239E0,6.214177551E0,7.111262054E0,1.096038506E1
4.623267792E0,4.649631042E0,5.774242401E0,7.325765991E0,1.042246571E1
4.633226792E0,3.515140228E0,5.526657257E0,7.312144318E0,9.816700351E0
4.643186792E0,2.962788849E0,5.356461182E0,7.395670624E0,9.600298856E0
4.653145792E0,3.534749451E0,5.278473358E0,7.395970001E0,9.749723428E0
4.663104792E0,4.774022369E0,5.452411652E0,7.235653381E0,1.024083797E1
4.673064792E0,5.725892944E0,5.668562164E0,6.935976563E0,1.063137893E1
4.683023792E0,6.237678680E0,5.611530762E0,6.635102234E0,1.069684507E1
4.692983792E0,6.547384644E0,5.341192932E0,6.708898773E0,1.078915707E1
4.702942792E0,6.405479736E0,5.193599854E0,6.875652008E0,1.073677049E1
4.712902792E0,5.934858398E0,5.069208527E0,7.231312408E0,1.064007981E1
4.722861792E0,5.200186157E0,5.034181366E0,7.617209930E0,1.050746426E1
4.732821792E0,4.672683105E0,5.240602112E0,7.591912537E0,1.034093873E1
4.742780792E0,4.536616058E0,5.369933167E0,7.544461212E0,1.031193301E1
4.752740792E0,4.548591156E0,5.222938843E0,7.576644287E0,1.026519899E1
4.762699792E0,4.517306213E0,5.043312378E0,7.410340118E0,1.003763896E1
4.772659792E0,4.357139282E0,4.906945953E0,7.013964386E0,9.605127679E0
4.782618792E0,4.140539703E0,4.902155914E0,6.458170166E0,9.104019087E0
4.792577792E0,3.746109924E0,4.931943970E0,5.979615326E0,8.608902969E0
4.802537792E0,3.071163483E0,4.795727234E0,5.783523102E0,8.116660909E0
4.812496792E0,2.511477356E0,4.484823761E0,5.846542053E0,7.784806784E0
4.822456792E0,2.295476532E0,4.014352112E0,5.866151276E0,7.469669750E0
4.832415792E0,2.248773651E0,3.645070038E0,5.625751190E0,7.070544178E0
4.842375792E0,2.118544464E0,3.549269257E0,4.887486420E0,6.401020731E0
4.852334792E0,1.889969788E0,3.461102600E0,4.122127991E0,5.704660917E0
4.862294792E0,1.549278259E0,3.245101776E0,3.670367432E0,5.138340758E0
4.872253792E0,1.176852722E0,2.873873749E0,3.428919525E0,4.626188687E0
4.882213792E0,6.204597473E-1,2.497406616E0,3.201542358E0,4.107539845E0
4.892172792E0,1.519340515E-1,2.316133575E0,2.932402039E0,3.739858341E0
4.902132792E0,-1.953437805E-1,2.333946533E0,2.565664673E0,3.473917216E0
4.912091792E0,-5.266049194E-1,2.650837555E0,2.227966919E0,3.502583200E0
4.922051792E0,-7.854167175E-1,3.095862122E0,2.040856018E0,3.790294841E0
4.932010792E0,-1.102457428E0,3.312461700E0,2.263742523E0,4.160810631E0
4.941969792E0,-1.652563477E0,3.494333496E0,2.677182770E0,4.701982583E0
4.951929792E0,-2.327659607E0,3.854334869E0,3.237018585E0,5.545465341E0
4.961888792E0,-3.096011810E0,4.323459320E0,3.678750000E0,6.466126444E0
4.971848792E0,-3.604504395E0,5.060077515E0,4.139791260E0,7.465568167E0
4.981807792E0,-4.003873901E0,5.900280304E0,4.394860840E0,8.376103849E0
4.991767792E0,-4.499642944E0,6.723867645E0,4.418062592E0,9.218267722E0
5.001726792E0,-4.733157349E0,7.254065094E0,4.302203522E0,9.671256072E0
5.011686792E0,-4.632117462E0,7.198829956E0,3.978726196E0,9.439805457E0
5.021645792E0,-4.408482513E0,6.726861420E0,3.554658051E0,8.793234700E0
5.031605792E0,-4.090543671E0,6.223607941E0,3.221450958E0,8.114406300E0
5.041564792E0,-3.871848450E0,5.833968201E0,2.845881958E0,7.558137304E0
5.051524792E0,-3.355721741E0,5.652994537E0,2.405497742E0,7.000259640E0
5.061483792E0,-2.483186188E0,5.740113373E0,1.884880371E0,6.532066227E0
5.071443792E0,-2.070344696E0,5.866899719E0,1.351240082E0,6.366528821E0
5.081402792E0,-2.138602753E0,6.068979492E0,9.325607300E-1,6.501984568E0
5.091362792E0,-2.252815247E0,6.272406464E0,6.734495544E-1,6.698641182E0
5.101321792E0,-2.817590790E0,6.354435883E0,7.707472229E-1,6.993691767E0
5.111281792E0,-3.577859802E0,6.533762970E0,1.474284210E0,7.593724596E0
5.121240792E0,-3.666774902E0,6.686146088E0,2.242486725E0,7.948492587E0
5.131200792E0,-3.328628082E0,6.646029510E0,2.835403748E0,7.955437611E0
5.141159792E0,-2.874023438E0,6.736291809E0,3.109034729E0,7.956364434E0
5.151119792E0,-2.294279022E0,6.932384033E0,3.136278076E0,7.947194775E0
5.161078792E0,-1.551224213E0,7.128625946E0,3.104693756E0,7.928601879E0
5.171038792E0,-1.222358093E0,7.607779541E0,2.968626709E0,8.257433826E0
5.180997792E0,-1.386117554E0,8.207432556E0,2.871179352E0,8.804938495E0
5.190956792E0,-1.839973755E0,8.705297241E0,3.183879089E0,9.450121138E0
5.200916792E0,-2.351909180E0,8.847202148E0,4.072131958E0,1.001931741E1
5.210875792E0,-2.355352020E0,8.649313660E0,5.155578918E0,1.034109781E1
5.220835792E0,-1.940414886E0,8.272247772E0,5.667364655E0,1.021343797E1
5.230794792E0,-1.681902466E0,8.116421814E0,5.519322510E0,9.958314111E0
5.240754792E0,-1.521436157E0,8.413703613E0,4.985382843E0,9.897434949E0
5.250713792E0,-1.516945496E0,8.957822113E0,4.756359100E0,1.025507935E1
5.260673792E0,-1.566941528E0,9.470206604E0,4.766987000E0,1.071747563E1
5.270632792E0,-1.686692505E0,9.884395294E0,5.296735382E0,1.134026488E1
5.280592792E0,-1.701362000E0,9.959089966E0,6.262676697E0,1.188693506E1
5.290551792E0,-1.721719666E0,9.779912567E0,7.365134125E0,1.236350311E1
5.300511792E0,-1.608405304E0,9.744286652E0,8.039481812E0,1.273465185E1
5.310470792E0,-1.569336548E0,1.006417145E1,8.122109985E0,1.302762583E1
5.320430792E0,-1.311722260E0,1.049617310E1,8.237669678E0,1.340706779E1
5.330389792E0,-9.611512756E-1,1.099628311E1,8.495283966E0,1.392881559E1
5.340349792E0,-9.508227539E-1,1.128518234E1,8.896300049E0,1.440151238E1
5.350308792E0,-9.855505371E-1,1.139879608E1,9.522747345E0,1.488578446E1
5.360268792E0,-8.593629456E-1,1.153636002E1,1.022538620E1,1.543970952E1
5.370227792E0,-6.743476868E-1,1.145732437E1,1.074839859E1,1.572428373E1
5.380187792E0,-2.829116821E-1,1.126317810E1,1.094972992E1,1.571100905E1
5.390146792E0,1.505868530E-1,1.122710312E1,1.091380463E1,1.565827744E1
5.400106792E0,4.813989258E-1,1.135628448E1,1.080617844E1,1.568344460E1
5.410065792E0,5.930667114E-1,1.170700516E1,1.065708847E1,1.584232409E1
5.420025792E0,3.893403625E-1,1.176493469E1,1.060918808E1,1.584677084E1
5.429984792E0,1.173559570E-1,1.146750320E1,1.073672287E1,1.570969828E1
5.439944792E0,2.791694641E-1,1.121078705E1,1.096829132E1,1.568639845E1
5.449903792E0,9.575587463E-1,1.085931793E1,1.096155533E1,1.545954074E1
5.459863792E0,1.924847260E0,1.054841446E1,1.086216202E1,1.526304846E1
5.469822667E0,2.939886475E0,1.045545776E1,1.057625656E1,1.515970753E1
5.479782667E0,3.594774628E0,1.055919205E1,1.022134460E1,1.512927053E1
5.489741667E0,3.615132294E0,1.075962524E1,9.910590820E0,1.506846134E1
5.499701667E0,3.008294220E0,1.084883972E1,1.005219635E1,1.509283966E1
5.509660667E0,2.200124817E0,1.069525909E1,1.069989944E1,1.528780443E1
5.519620667E0,1.822460175E0,1.033720367E1,1.119013000E1,1.534269046E1
5.529579667E0,2.179617462E0,9.874815216E0,1.148142426E1,1.529986310E1
5.539539667E0,2.806813202E0,9.685908051E0,1.133128647E1,1.516881894E1
5.549498667E0,3.433709564E0,9.872569885E0,1.068612808E1,1.494828856E1
5.559458667E0,3.716621246E0,1.019305344E1,9.776320038E0,1.460438446E1
5.569417667E0,3.817212067E0,1.037836807E1,8.900790710E0,1.419527059E1
5.579377667E0,3.827241211E0,1.032088760E1,8.497828674E0,1.390617087E1
5.589336667E0,3.655548248E0,1.012689102E1,8.897497559E0,1.396719075E1
5.599296667E0,3.575165405E0,9.992320862E0,9.328601074E0,1.412979412E1
5.609255667E0,3.692671051E0,1.009575577E1,9.402846680E0,1.428193368E1
5.619215667E0,3.922443237E0,1.010773087E1,9.782307587E0,1.460292183E1
5.629174667E0,4.390370178E0,1.010204269E1,9.981393585E0,1.486454960E1
5.639134667E0,4.814887390E0,1.021026764E1,9.751322021E0,1.491713736E1
5.649093667E0,4.977748718E0,1.016805542E1,9.420959015E0,1.472826541E1
5.659053667E0,4.953648834E0,1.014171021E1,8.738079071E0,1.427399553E1
5.669012667E0,4.991370392E0,1.014874557E1,8.455616455E0,1.412119913E1
5.678972667E0,5.050347748E0,9.996961212E0,8.372539215E0,1.398372836E1
5.688931667E0,5.239254913E0,9.914931793E0,8.270002441E0,1.393372186E1
5.698891667E0,5.511089630E0,9.896819458E0,8.085286560E0,1.391729151E1
5.708850667E0,5.700296173E0,9.788444824E0,8.093070374E0,1.392137984E1
5.718810667E0,5.687872009E0,9.605375519E0,8.058791656E0,1.376805178E1
5.728769667E0,5.645510101E0,9.429042206E0,8.045918427E0,1.362040471E1
5.738729667E0,5.727838898E0,9.037007446E0,8.142467651E0,1.344527506E1
5.748688667E0,5.792055359E0,8.231532440E0,8.427774353E0,1.312758211E1
5.758648667E0,5.528154144E0,7.320676575E0,8.310268707E0,1.237793843E1
5.768607667E0,5.507796478E0,6.735842743E0,8.009244690E0,1.182604752E1
5.778567667E0,5.564678192E0,6.472540283E0,7.338489532E0,1.125668023E1
5.788526667E0,5.569318542E0,6.329587555E0,6.727011108E0,1.078580855E1
5.798486667E0,5.477409668E0,6.190377045E0,6.265520782E0,1.037205550E1
5.808445667E0,5.119354248E0,6.019881592E0,5.930517426E0,9.880172024E0
5.818405667E0,4.684059448E0,5.898633728E0,6.007906494E0,9.634792848E0
5.828364667E0,4.409380646E0,5.659131775E0,6.369105377E0,9.593430744E0
5.838324667E0,4.325554962E0,5.245691528E0,6.742728424E0,9.575598777E0
5.848283667E0,4.249962158E0,4.708009644E0,6.886130219E0,9.361961468E0
5.858243667E0,4.348906403E0,4.247118073E0,7.037166138E0,9.299070172E0
5.868202667E0,4.583169250E0,3.882027283E0,7.026388550E0,9.243684993E0
5.878162667E0,4.698728943E0,3.565884705E0,6.614145813E0,8.862308516E0
5.888121667E0,4.380191345E0,3.215762787E0,6.110592957E0,8.177197124E0
5.898081667E0,3.722459106E0,2.933150482E0,5.323679352E0,7.127526597E0
5.908040667E0,3.075803833E0,2.700983276E0,4.828059998E0,6.329774342E0
5.918000667E0,2.217189331E0,2.654579773E0,4.825964355E0,5.937394568E0
5.927960667E0,2.183808746E0,2.852019196E0,4.963677979E0,6.127081949E0
5.937919667E0,2.530338135E0,3.272195435E0,4.953798523E0,6.453680643E0
5.947879667E0,2.610720978E0,3.891008606E0,5.056784363E0,6.893974187E0
5.957838667E0,2.783162384E0,4.405488739E0,5.432652740E0,7.527817724E0
5.967798667E0,3.164120178E0,4.669389954E0,5.936355286E0,8.188722313E0
5.977757667E0,3.591780853E0,4.821174316E0,6.291267242E0,8.701991439E0
5.987717667E0,3.742068329E0,4.788991241E0,6.446943512E0,8.860056046E0
5.997676667E0,3.477568359E0,4.509223022E0,6.439159698E0,8.595891553E0
6.007636667E0,2.776875458E0,4.201762390E0,6.171067200E0,7.965419943E0
6.017595667E0,2.017205200E0,4.010011139E0,5.594615936E0,7.172798173E0
6.027555667E0,1.289568329E0,4.019441528E0,4.563560028E0,6.216508409E0
6.037514667E0,8.279283142E-1,4.068539429E0,3.565585327E0,5.472830812E0
6.047474667E0,5.897735596E-1,4.114643555E0,2.851420441E0,5.040706594E0
6.057433667E0,5.785469055E-1,4.271667023E0,2.546803894E0,5.006801948E0
6.067393667E0,7.692503357E-1,4.514761505E0,2.504591675E0,5.219942240E0
6.077352667E0,9.172924805E-1,4.787344666E0,2.594853973E0,5.522079462E0
6.087312667E0,9.226812744E-1,5.003644867E0,2.668051758E0,5.745111215E0
6.097271667E0,6.505471802E-1,5.064568176E0,2.629881134E0,5.743634496E0
6.107231667E0,2.239343262E-1,5.073100433E0,2.552641754E0,5.683526591E0
6.117190667E0,-4.640350342E-2,5.040617981E0,2.521955566E0,5.636509806E0
6.127150667E0,-4.459226990E-1,5.063370667E0,2.468666382E0,5.650741833E0
6.137110667E0,-9.364526367E-1,5.165458374E0,2.474653931E0,5.803689846E0
6.147069667E0,-1.405427399E0,5.220992889E0,2.571951599E0,5.987397427E0
6.157029667E0,-1.710942078E0,5.236410828E0,2.592009888E0,6.088171844E0
6.166988667E0,-1.757644958E0,5.188660126E0,2.638114014E0,6.080391044E0
6.176948667E0,-1.698966980E0,5.223088531E0,2.623444519E0,6.086838568E0
6.186907667E0,-1.789079590E0,5.492528229E0,2.619552612E0,6.342769743E0
6.196867667E0,-1.858086090E0,5.909561005E0,2.584226074E0,6.712199311E0
6.206826667E0,-1.767674103E0,6.256240082E0,2.703527985E0,7.040900174E0
6.216786667E0,-1.601070557E0,6.391259308E0,2.966531067E0,7.225782244E0
6.226745667E0,-1.298399963E0,6.403084717E0,3.299139404E0,7.319129536E0
6.236705667E0,-1.041534119E0,6.449488220E0,3.573369141E0,7.446452755E0
6.246664667E0,-1.027463379E0,6.650370483E0,3.657494202E0,7.659005967E0
6.256624667E0,-1.299597473E0,7.022047577E0,3.528462524E0,7.965434925E0
6.266583667E0,-1.691332855E0,7.502398682E0,3.359763336E0,8.392532543E0
6.276543667E0,-1.924248505E0,7.892936554E0,3.482957153E0,8.839240368E0
6.286502667E0,-1.956581268E0,8.070167999E0,3.879781952E0,9.165616716E0
6.296462667E0,-1.831142120E0,7.991581421E0,4.540657654E0,9.372087654E0
6.306422667E0,-1.506467285E0,7.940687256E0,5.038971405E0,9.524452247E0
6.316381667E0,-9.933343506E-1,8.098309479E0,5.119803314E0,9.632326589E0
6.326341667E0,-7.798782349E-1,8.490044861E0,4.820425873E0,9.794160372E0
6.336300667E0,-1.093925171E0,8.922944641E0,4.452191620E0,1.003183052E1
6.346260667E0,-2.001487885E0,9.274264069E0,4.398603058E0,1.045780267E1
6.356219667E0,-3.060984650E0,9.431287537E0,4.910987549E0,1.106510779E1
6.366179667E0,-3.644471283E0,9.344917145E0,5.767955475E0,1.157060749E1
6.376138667E0,-3.648363190E0,9.113199005E0,6.405479736E0,1.172139585E1
6.386098667E0,-3.063828735E0,9.128766632E0,6.508166199E0,1.162229125E1
6.396057667E0,-2.262994080E0,9.481283569E0,6.076314240E0,1.148640392E1
6.406017667E0,-1.662143555E0,9.902956696E0,5.341941376E0,1.137398831E1
6.415976667E0,-1.304088135E0,1.015458344E1,4.805007935E0,1.130947885E1
6.425936667E0,-1.469943237E0,1.014036301E1,4.835993500E0,1.133024837E1
6.435896667E0,-1.938019867E0,9.927355957E0,5.285658417E0,1.141255897E1
6.445855667E0,-1.898502045E0,9.812245331E0,5.924230499E0,1.161813132E1
6.455815667E0,-1.241967316E0,9.727371826E0,6.383475494E0,1.170098307E1
6.465774667E0,-2.447410583E-1,9.898615723E0,6.423891449E0,1.180291798E1
6.475734792E0,8.038284302E-1,1.029124924E1,6.318809967E0,1.210302898E1
6.485693792E0,1.295555878E0,1.068508026E1,6.346203003E0,1.249494689E1
6.495653792E0,1.250050507E0,1.094014984E1,6.471043396E0,1.277199700E1
6.505612792E0,5.516029358E-1,1.089000412E1,6.898853760E0,1.290312515E1
6.515572792E0,-2.197430420E-1,1.061307999E1,7.345075836E0,1.290875257E1
6.525532792E0,-5.533992004E-1,1.041114990E1,7.631729736E0,1.292058790E1
6.535491792E0,-2.026785278E-1,1.040246796E1,7.752229156E0,1.297495569E1
6.545451792E0,7.530839539E-1,1.050335815E1,7.803273010E0,1.310643879E1
6.555410792E0,1.765877838E0,1.051623138E1,7.772586823E0,1.319555050E1
6.565370792E0,2.531535645E0,1.053254745E1,7.743397522E0,1.331553355E1
6.575329792E0,2.851270752E0,1.067535049E1,7.699838104E0,1.346775259E1
6.585289792E0,2.792293396E0,1.073328003E1,7.674091644E0,1.348672997E1
6.595248792E0,2.361040192E0,1.047252228E1,7.802374878E0,1.327122027E1
6.605208792E0,1.401385803E0,1.000414627E1,7.910001068E0,1.283023545E1
6.615167792E0,4.981640625E-1,9.596693573E0,7.916437683E0,1.245048917E1
6.625127792E0,4.029620361E-1,9.479786682E0,7.860154724E0,1.232115117E1
6.635086792E0,1.045875092E0,9.649084625E0,7.654482422E0,1.236081672E1
6.645046792E0,1.869462433E0,9.597292328E0,7.487280121E0,1.231512377E1
6.655006792E0,2.409689026E0,9.434131622E0,7.210805054E0,1.211631752E1
6.664965792E0,2.658621368E0,9.301507416E0,7.062164154E0,1.197749850E1
6.674925792E0,2.539918213E0,9.092541962E0,6.985224152E0,1.174388608E1
6.684884792E0,1.985920258E0,8.782536621E0,6.894961853E0,1.134095797E1
6.694844792E0,1.430575104E0,8.545429688E0,6.897955627E0,1.107486819E1
6.704803792E0,1.043180695E0,8.287516022E0,6.980134735E0,1.088546869E1
6.714763792E0,9.836045837E-1,8.196056213E0,7.035669250E0,1.084635686E1
6.724722792E0,1.341210938E0,8.180189209E0,7.054979095E0,1.088517672E1
6.734682792E0,1.713935852E0,8.120164032E0,7.029981079E0,1.087636309E1
6.744642792E0,1.952240295E0,8.098608856E0,6.864425354E0,1.079439869E1
6.754601792E0,1.972448273E0,8.089178467E0,6.714287567E0,1.069612163E1
6.764561792E0,1.826501770E0,8.032895508E0,6.634952545E0,1.057762328E1
6.774520792E0,1.556313629E0,7.770341492E0,6.842570801E0,1.047000927E1
6.784480792E0,1.125509491E0,7.488777008E0,7.058571625E0,1.035239036E1
6.794439792E0,8.077203369E-1,7.279661865E0,7.128176880E0,1.022041069E1
6.804399792E0,9.761201477E-1,7.212152252E0,7.086114349E0,1.015780327E1
6.814358792E0,1.354982300E0,7.294331360E0,6.875502319E0,1.011512626E1
6.824318792E0,1.677711182E0,7.313192139E0,6.586453400E0,9.983930211E0
6.834277792E0,1.902543640E0,7.251520386E0,6.383924561E0,9.846761549E0
6.844237792E0,1.857786713E0,7.224277039E0,6.242019653E0,9.726477243E0
6.854197792E0,1.671124878E0,7.312294006E0,6.066434784E0,9.646964962E0
6.864156792E0,1.418300629E0,7.385192413E0,5.939798126E0,9.582997727E0
6.874116792E0,1.243763580E0,7.317383423E0,6.021228790E0,9.557522908E0
6.884075792E0,1.318158875E0,7.127278748E0,6.284082184E0,9.592983585E0
6.894035792E0,1.481618958E0,7.004384308E0,6.434669037E0,9.626087465E0
6.903994792E0,1.644929352E0,7.064559174E0,6.396648102E0,9.671137256E0
6.913954792E0,1.803000641E0,7.075636139E0,6.380481720E0,9.696699699E0
6.923913792E0,1.665287018E0,6.888076172E0,6.429878998E0,9.568809651E0
6.933873792E0,1.319805450E0,6.900051270E0,6.568490753E0,9.617570625E0
6.943833792E0,9.701325989E-1,7.109166412E0,6.807393951E0,9.890501340E0
6.953792792E0,8.074209595E-1,7.280559998E0,6.974745941E0,1.011462127E1
6.963752792E0,6.722520447E-1,7.357799377E0,6.674021301E0,9.956490085E0
6.973711792E0,5.691165161E-1,7.411537628E0,6.118077393E0,9.627338916E0
6.983671792E0,4.373904419E-1,7.301516418E0,5.909710693E0,9.403623391E0
6.993630792E0,3.543132019E-1,7.038213959E0,6.077811127E0,9.306007826E0
7.003590792E0,3.927832031E-1,6.635401611E0,6.246061249E0,9.121190400E0
7.013550792E0,4.776567078E-1,6.619235229E0,5.935157776E0,8.903287526E0
7.023509792E0,4.725672913E-1,6.671775970E0,5.942642212E0,8.947117463E0
7.033469792E0,7.144642639E-1,6.686894531E0,6.490652618E0,9.346314197E0
7.043428792E0,6.539900208E-1,6.861431580E0,6.795119476E0,9.678873641E0
7.053388792E0,4.526586914E-1,7.105873260E0,6.978787537E0,9.970045645E0
7.063347792E0,4.230203247E-1,7.322173462E0,7.237150269E0,1.030385920E1