"Time (s)","Acceleration x (m/s^2)","Acceleration y (m/s^2)","Acceleration z (m/s^2)","Absolute acceleration (m/s^2)"
-2.303083311E-3,-1.380878448E0,7.960146790E0,5.584287415E0,9.821152077E0
7.655916677E-3,-1.437460785E0,8.015681305E0,5.461842041E0,9.805567743E0
1.761391666E-2,-1.487905884E0,8.008346558E0,5.326224060E0,9.732221804E0
2.757291665E-2,-1.556014252E0,8.005502472E0,5.223537598E0,9.684760979E0
3.753091668E-2,-1.611698456E0,8.029302979E0,5.216202850E0,9.709585491E0
4.748991667E-2,-1.701661377E0,8.047565002E0,5.258864136E0,9.762919948E0
5.744891666E-2,-1.603166199E0,7.982001343E0,5.216801605E0,9.669410855E0
6.740691670E-2,-1.352287903E0,7.862250366E0,5.220693512E0,9.534112656E0
7.736591669E-2,-1.262175293E0,7.760611725E0,5.182073822E0,9.416691028E0
8.732391667E-2,-1.460812225E0,7.729626160E0,5.175188141E0,9.416138551E0
9.728291666E-2,-1.581760712E0,7.719447327E0,5.154680786E0,9.416080288E0
1.072409167E-1,-1.691482544E0,7.787256317E0,5.115312653E0,9.469366277E0
1.171999167E-1,-1.863325195E0,7.808212738E0,5.096900940E0,9.508867763E0
1.271579167E-1,-1.738484802E0,7.814499664E0,5.000052338E0,9.438710600E0
1.371169167E-1,-1.300794983E0,7.637567596E0,4.816533966E0,9.122691808E0
1.470749167E-1,-8.605604553E-1,7.474107513E0,4.668042755E0,8.854008730E0
1.570339167E-1,-6.701564026E-1,7.341034241E0,4.506977692E0,8.640181783E0
1.669919167E-1,-7.699987793E-1,7.325616302E0,4.321213989E0,8.539932241E0
1.769509166E-1,-1.093775482E0,7.422464905E0,4.286186829E0,8.640643934E0
1.869099167E-1,-1.525028687E0,7.551047516E0,4.468807068E0,8.905855809E0
1.968679167E-1,-1.741478577E0,7.819888458E0,4.562063141E0,9.219317938E0
2.068269167E-1,-1.672771454E0,7.556735687E0,4.190236359E0,8.801164657E0
2.167849167E-1,-1.343905334E0,6.882986755E0,3.948489075E0,8.048114947E0
2.267439167E-1,-1.110839996E0,6.521937561E0,3.836072845E0,7.647554506E0
2.367019167E-1,-1.078956299E0,6.543492737E0,3.995641022E0,7.742518393E0
2.466609167E-1,-1.645079041E0,6.295159149E0,2.572999420E0,6.996830695E0
2.566189167E-1,-2.082319794E0,7.543263702E0,1.474433899E0,7.963092259E0
2.665779167E-1,-3.202889557E0,7.601043549E0,4.920867004E0,9.604649739E0
2.765359167E-1,-4.159101105E0,7.445816345E0,5.452112274E0,1.012244196E1
2.864949167E-1,-4.386927338E0,7.170987854E0,5.960305481E0,1.030502012E1
2.964539167E-1,-4.056564331E0,6.365363159E0,6.406826935E0,9.900555221E0
3.064119167E-1,-3.548221436E0,6.136339417E0,7.044051819E0,9.993157800E0
3.163709167E-1,-2.783312073E0,6.430926819E0,7.800728302E0,1.048594335E1
3.263289166E-1,-1.646725616E0,6.726562042E0,7.884853363E0,1.049424865E1
3.362879167E-1,-6.035449219E-1,7.047943726E0,8.445587311E0,1.101661120E1
3.462459167E-1,-6.701564026E-1,7.424410858E0,8.967701569E0,1.166150323E1
3.562049167E-1,-2.168241119E0,7.965385895E0,8.896000671E0,1.213620492E1
3.661629166E-1,-3.887266388E0,9.063202972E0,8.109685822E0,1.276790869E1
3.761219167E-1,-4.084855499E0,9.835746460E0,6.918313293E0,1.270003983E1
3.860799167E-1,-2.903063049E0,9.999505920E0,5.980962524E0,1.200790600E1
3.960389167E-1,-1.123114471E0,1.020996826E1,5.787714386E0,1.178993112E1
4.059969167E-1,3.701802063E-1,9.754315796E0,6.364914093E0,1.165314728E1
4.159559167E-1,8.560697937E-1,8.865164795E0,7.425308990E0,1.159565505E1
4.259149167E-1,1.219064941E0,8.330476685E0,8.652457123E0,1.207261262E1
4.358729167E-1,2.042203217E0,8.112380219E0,9.779912567E0,1.286965410E1
4.458319167E-1,3.074157257E0,8.075706482E0,1.062475571E1,1.369499587E1
4.557899167E-1,3.983965302E0,7.679630127E0,1.150702103E1,1.439653539E1
4.657489167E-1,4.242777100E0,6.977440338E0,1.238314911E1,1.483334801E1
4.757069167E-1,3.670666809E0,6.487209778E0,1.299462753E1,1.498058845E1
4.856659167E-1,4.046984253E0,6.659800873E0,1.317290680E1,1.530544030E1
4.956239167E-1,4.681664429E0,6.720275116E0,1.310809158E1,1.545645963E1
5.055829167E-1,5.299280090E0,6.837780762E0,1.318952225E1,1.577343058E1
5.155409166E-1,5.917344818E0,6.788982239E0,1.333741470E1,1.609322468E1
5.254999167E-1,6.321504364E0,6.051316223E0,1.357272537E1,1.614926374E1
5.354589167E-1,6.351891174E0,4.872966614E0,1.357751541E1,1.576201922E1
5.454169167E-1,5.795647888E0,3.676504669E0,1.314446594E1,1.482845932E1
5.553759167E-1,5.324128418E0,3.014730835E0,1.228510300E1,1.372438345E1
5.653339167E-1,5.215155029E0,2.947370911E0,1.128158981E1,1.277337489E1
5.752929167E-1,5.210814056E0,2.952909393E0,1.040830582E1,1.200854225E1
5.852509167E-1,4.870421906E0,2.815794525E0,1.012150223E1,1.157991864E1
5.952099166E-1,4.117038574E0,2.480042725E0,1.048629364E1,1.153529249E1
6.051679167E-1,3.499572601E0,1.650467834E0,1.103295685E1,1.169175732E1
6.151269167E-1,3.543431396E0,8.458909607E-1,1.111049561E1,1.169249974E1
6.250849167E-1,3.760929108E0,5.119354248E-1,1.070468948E1,1.135768650E1
6.350439167E-1,3.766916656E0,3.213816833E-1,1.021954834E1,1.089642673E1
6.450029167E-1,3.778143311E0,1.989363098E-1,9.655371552E0,1.037015633E1
6.549609167E-1,3.520678711E0,4.311035156E-2,9.262438660E0,9.909077001E0
6.649199167E-1,2.909050598E0,-1.950444031E-1,9.479487305E0,9.917726416E0
6.748779167E-1,2.177222443E0,-4.221221924E-1,1.007943970E1,1.032054210E1
6.848369167E-1,8.708889771E-1,-8.997789001E-1,9.492360535E0,9.574599637E0
6.947949167E-1,1.972747650E0,-1.222358093E0,1.053793625E1,1.079045842E1
7.047539167E-1,2.273322601E0,-1.059347076E0,1.062460602E1,1.091661417E1
7.147119167E-1,2.471959534E0,-1.015188904E0,1.058463913E1,1.091676591E1
7.246709167E-1,2.279759216E0,-8.599617004E-1,1.044273422E1,1.072322406E1
7.346289167E-1,1.839075623E0,-8.657995605E-1,9.857301636E0,1.006470087E1
7.445879166E-1,1.431622925E0,-1.141825562E0,9.498198395E0,9.673111317E0
7.545459167E-1,9.916877747E-1,-1.434916077E0,9.220825195E0,9.384351127E0
7.645049167E-1,6.941065979E-1,-1.574575653E0,9.004974060E0,9.167913082E0
7.744639167E-1,5.020559692E-1,-1.618135071E0,8.906179504E0,9.065895139E0
7.844219167E-1,3.484753418E-1,-1.665137329E0,8.728349304E0,8.892592365E0
7.943809167E-1,2.691403198E-1,-1.692829742E0,8.603957977E0,8.773038352E0
8.043389167E-1,1.160087585E-1,-1.561103668E0,8.531059570E0,8.673492958E0
8.142979167E-1,-1.164578247E-1,-1.348695374E0,8.255332947E0,8.365588066E0
8.242559167E-1,-3.610491943E-1,-1.146914978E0,8.056546326E0,8.145778611E0
8.342149167E-1,-5.484594727E-1,-1.112935638E0,7.986791382E0,8.082590557E0
8.441729167E-1,-5.080435181E-1,-1.309027863E0,7.938890991E0,8.062112151E0
8.541319167E-1,-4.424798584E-1,-1.345701599E0,7.707322540E0,7.836422778E0
8.640899167E-1,-3.504212952E-1,-1.207838287E0,7.284152527E0,7.391924408E0
8.740489167E-1,-3.264710999E-1,-1.035546570E0,6.902595978E0,6.987472455E0
8.840079167E-1,-3.333567810E-1,-8.253836060E-1,6.745123444E0,6.803607507E0
8.939659166E-1,-5.227130127E-1,-6.706054688E-1,6.825057220E0,6.877815544E0
9.039249167E-1,-9.654922485E-1,-6.215075684E-1,6.976841583E0,7.070697661E0
9.138829167E-1,-1.404529266E0,-4.969665527E-1,7.158114624E0,7.311517160E0
9.238419167E-1,-1.777703247E0,-1.600172424E-1,7.432494049E0,7.643808092E0
9.337999166E-1,-2.026186523E0,-1.437011719E-2,7.743846588E0,8.004548601E0
9.437589167E-1,-2.408341827E0,2.636018372E-1,8.171507263E0,8.523093760E0
9.537169167E-1,-2.428699493E0,6.854246521E-1,8.797655182E0,9.152438193E0
9.636759167E-1,-2.258204041E0,7.593708801E-1,9.116941223E0,9.423096460E0
9.736339167E-1,-2.387086029E0,8.292755127E-1,8.963210907E0,9.312627306E0
9.835929167E-1,-2.773881683E0,8.161029053E-1,8.698411560E0,9.166395541E0
9.935526667E-1,-3.574716339E0,8.253836060E-1,8.407566376E0,9.173168883E0
1.003510667E0,-4.430486755E0,8.229885864E-1,8.195008392E0,9.352255645E0
1.013469667E0,-5.141208801E0,6.632707214E-1,8.180787964E0,9.684897919E0
1.023427667E0,-5.558391266E0,5.275030518E-1,8.493038635E0,1.016394009E1
1.033386667E0,-5.593717804E0,4.878355408E-1,8.893905029E0,1.051804207E1
1.043344667E0,-5.534890137E0,3.338058472E-1,9.272318115E0,1.080381036E1
1.053303667E0,-5.616021423E0,3.739224243E-1,9.403595123E0,1.095933921E1
1.063261667E0,-5.789360962E0,8.595126343E-1,9.276808777E0,1.096880319E1
1.073220667E0,-6.036497040E0,1.300495605E0,9.164093170E0,1.105039316E1
1.083178667E0,-6.371201019E0,1.429976349E0,9.194779358E0,1.127745549E1
1.093137667E0,-6.777156830E0,1.339115295E0,9.533524933E0,1.177332502E1
1.103096667E0,-7.161258087E0,1.245709534E0,1.015069153E1,1.248486877E1
1.113054667E0,-7.231911163E0,1.255139923E0,1.059332108E1,1.288776034E1
1.123013667E0,-6.907535706E0,1.316212921E0,1.088521408E1,1.295894871E1
1.132971667E0,-6.456673279E0,1.536854095E0,1.082054855E1,1.269388913E1
1.142930667E0,-6.050567780E0,2.017354889E0,1.053389465E1,1.231430176E1
1.152888667E0,-5.765410767E0,2.511627045E0,1.027268784E1,1.204476430E1
1.162847667E0,-5.551505585E0,2.546953583E0,1.024709106E1,1.192933620E1
1.172805667E0,-5.541027374E0,2.384092255E0,1.096679443E1,1.251628780E1
1.182764667E0,-5.323978729E0,2.460433502E0,1.228645020E1,1.361452683E1
1.192722667E0,-4.686454468E0,2.507136383E0,1.329026276E1,1.431361843E1
1.202681667E0,-3.862567749E0,2.401905212E0,1.365265915E1,1.439040236E1
1.212639667E0,-3.103795624E0,2.639161835E0,1.326511505E1,1.387667106E1
1.222598667E0,-2.686313782E0,3.150348816E0,1.276844788E1,1.342289986E1
1.232557667E0,-2.786904602E0,3.126398621E0,1.259181519E1,1.327007970E1
1.242515667E0,-2.930306396E0,2.870879974E0,1.277024414E1,1.341297069E1
1.252474667E0,-2.887345734E0,2.445614319E0,1.336600525E1,1.389128832E1
1.262432667E0,-2.132016449E0,2.066752167E0,1.382584900E1,1.414111237E1
1.272391667E0,-9.142987061E-1,1.825903015E0,1.435619614E1,1.450069762E1
1.282349667E0,2.140548706E-1,1.661095734E0,1.484178635E1,1.493598609E1
1.292308667E0,9.056167603E-1,2.034569092E0,1.483145782E1,1.499772497E1
1.302266667E0,1.127904510E0,2.507286072E0,1.462219299E1,1.487841322E1
1.312225667E0,1.054257660E0,2.683769073E0,1.427446609E1,1.456277645E1
1.322183667E0,8.515791321E-1,2.441273346E0,1.390263931E1,1.414101773E1
1.332142667E0,4.822970581E-1,1.849703522E0,1.349668350E1,1.363137848E1
1.342101667E0,3.306623840E-1,1.018332367E0,1.345581848E1,1.349834766E1
1.352059667E0,5.135820007E-1,2.297721863E-1,1.380459320E1,1.381605425E1
1.362018667E0,1.139280853E0,-6.541397095E-2,1.412627426E1,1.417229214E1
1.371976667E0,1.742077332E0,2.679428101E-1,1.424512711E1,1.435375467E1
1.381935667E0,2.187401276E0,8.202941895E-1,1.440679092E1,1.459497282E1
1.391893667E0,2.559527435E0,1.441053314E0,1.434616699E1,1.464378103E1
1.401852667E0,2.859653320E0,1.847009125E0,1.428269897E1,1.468279775E1
1.411810667E0,3.133733368E0,1.699715424E0,1.440529404E1,1.483987243E1
1.421769667E0,3.383114777E0,1.336570587E0,1.460512848E1,1.505130109E1
1.431727667E0,3.642525330E0,8.577163696E-1,1.482112930E1,1.528625337E1
1.441686667E0,3.785178680E0,5.170248413E-1,1.471065903E1,1.519863090E1
1.451645667E0,3.851640472E0,3.430865479E-1,1.447729431E1,1.498482210E1
1.461603667E0,3.911965027E0,4.623884583E-1,1.411549667E1,1.465484629E1
1.471562667E0,3.940854950E0,8.018824768E-1,1.378633118E1,1.436092896E1
1.481520667E0,3.806284790E0,1.205592957E0,1.347827179E1,1.405720700E1
1.491479667E0,3.756588135E0,1.353934479E0,1.336840027E1,1.395203278E1
1.501437667E0,3.658392334E0,1.074016571E0,1.360984818E1,1.413383576E1
1.511396667E0,3.564836884E0,6.809339905E-1,1.385009857E1,1.431771503E1
1.521354667E0,3.739373932E0,8.189469910E-1,1.335103638E1,1.388897995E1
1.531313667E0,4.465214539E0,1.056053925E0,1.285242325E1,1.364691079E1
1.541272667E0,5.127736816E0,9.822573853E-1,1.248014740E1,1.352821472E1
1.551230667E0,5.593568115E0,8.366102600E-1,1.189651108E1,1.317250534E1
1.561189667E0,5.689518585E0,6.728507996E-1,1.133338211E1,1.269916926E1
1.571147667E0,5.325924683E0,2.125579834E-1,1.107247467E1,1.228862685E1
1.581106667E0,4.762196960E0,-2.818638611E-1,1.102053268E1,1.200875130E1
1.591064667E0,4.265080719E0,-5.200186157E-1,1.102741837E1,1.183491820E1
1.601023667E0,3.881129150E0,-8.373587036E-1,1.110286148E1,1.179143190E1
1.610981667E0,3.609444122E0,-8.970845032E-1,1.095287338E1,1.156712077E1
1.620940667E0,3.608995056E0,-6.626719666E-1,1.065244812E1,1.126670450E1
1.630899667E0,3.720812531E0,-3.656895447E-1,1.028107040E1,1.093977072E1
1.640857667E0,3.688629456E0,-3.318598938E-1,1.022044647E1,1.087077018E1
1.650816667E0,3.703748016E0,-4.111949158E-1,1.026655060E1,1.092194542E1
1.660774667E0,3.983815613E0,-6.542893982E-1,1.038824753E1,1.114515896E1
1.670733667E0,4.476441193E0,-8.848100281E-1,1.047506699E1,1.142577975E1
1.680691667E0,4.770280151E0,-9.964778137E-1,1.044812302E1,1.152873867E1
1.690650667E0,4.689298553E0,-1.155746613E0,1.018511993E1,1.127217544E1
1.700608667E0,4.435875549E0,-1.306034088E0,9.785001984E0,1.082261432E1
1.710567667E0,3.919000397E0,-1.503772888E0,9.342671814E0,1.024233438E1
1.720525667E0,3.231779480E0,-1.693727875E0,9.092092896E0,9.796900834E0
1.730484667E0,2.444566498E0,-1.733994141E0,9.235195312E0,9.709349798E0
1.740443667E0,1.836081848E0,-1.700763245E0,9.677525482E0,9.995913746E0
1.750401667E0,1.774260406E0,-1.602118378E0,1.004067032E1,1.032132955E1
1.760360667E0,2.004331970E0,-1.429377594E0,1.008183472E1,1.037804694E1
1.770318667E0,2.368524628E0,-1.196461945E0,9.978699188E0,1.032549600E1
1.780277667E0,2.593057709E0,-9.500743103E-1,9.937983856E0,1.031455828E1
1.790235667E0,2.523452454E0,-1.065035248E0,9.987231445E0,1.035600813E1
1.800194667E0,2.158511353E0,-1.220561829E0,9.811047821E0,1.011956530E1
1.810152667E0,1.769919434E0,-1.413809967E0,9.607770538E0,9.871207026E0
1.820111667E0,1.455872498E0,-1.582808533E0,9.391470337E0,9.634550465E0
1.830070667E0,1.169368286E0,-1.587149506E0,9.121132507E0,9.331748173E0
1.840028667E0,8.979826355E-1,-1.536854095E0,8.930129700E0,9.105795395E0
1.849987667E0,5.631289673E-1,-1.414708099E0,8.814420319E0,8.944971704E0
1.859945667E0,1.484912109E-1,-1.398541718E0,8.639733582E0,8.753454457E0
1.869904667E0,-3.264710999E-1,-1.445094910E0,8.454718323E0,8.583539165E0
1.879862667E0,-7.779322815E-1,-1.417552185E0,8.397237854E0,8.551504921E0
1.889821667E0,-1.057550812E0,-1.269809418E0,8.367898865E0,8.529511187E0
1.899779667E0,-1.137185211E0,-1.137334900E0,8.348289642E0,8.501803387E0
1.909738667E0,-1.130598907E0,-9.728269958E-1,8.198451233E0,8.333021593E0
1.919697667E0,-9.788145447E-1,-8.514294434E-1,7.930807800E0,8.036213186E0
1.929655667E0,-9.295669556E-1,-8.436456299E-1,7.555687866E0,7.659259220E0
1.939614667E0,-1.055604858E0,-8.114625549E-1,7.179819489E0,7.302231233E0
1.949572667E0,-1.276545410E0,-7.518864441E-1,6.903793488E0,7.060967776E0
1.959531667E0,-1.556613007E0,-6.471043396E-1,6.768624573E0,6.975390074E0
1.969489667E0,-1.697919159E0,-5.911207581E-1,6.718029785E0,6.954442998E0
1.979448667E0,-1.708547058E0,-5.721102905E-1,6.716233521E0,6.953721014E0
1.989406667E0,-1.716330872E0,-5.077441406E-1,6.725963287E0,6.960041517E0
1.999365583E0,-1.787882080E0,-4.743635559E-1,6.656807098E0,6.909024813E0
2.009324583E0,-1.834884338E0,-4.782554626E-1,6.653064880E0,6.918005574E0
2.019282583E0,-1.898202667E0,-4.763095093E-1,6.805897064E0,7.081686167E0
2.029241583E0,-1.991608429E0,-4.201762390E-1,7.181915131E0,7.464781119E0
2.039199583E0,-2.140997772E0,-1.980381775E-1,7.678881683E0,7.974228144E0
2.049158583E0,-2.380499725E0,2.267784119E-1,7.897726593E0,8.251805422E0
2.059116583E0,-2.679128723E0,5.851332092E-1,8.136480103E0,8.586176102E0
2.069075583E0,-2.972219238E0,7.482939148E-1,8.466244354E0,9.003961597E0
2.079033583E0,-3.240910492E0,8.152047729E-1,8.707093506E0,9.326389278E0
2.088992583E0,-3.305875397E0,8.385562134E-1,8.908873901E0,9.539393212E0
2.098951583E0,-3.351829834E0,8.425978088E-1,8.852590942E0,9.503320509E0
2.108909583E0,-3.588637390E0,9.964778137E-1,8.652756500E0,9.420269710E0
2.118868583E0,-3.875890045E0,1.163530426E0,8.538993073E0,9.449377196E0
2.128826583E0,-4.356989594E0,1.361418915E0,8.594228210E0,9.731268073E0
2.138785583E0,-4.798122253E0,1.607806549E0,8.953481140E0,1.028454392E1
2.148743583E0,-4.903952179E0,1.671573944E0,9.522148590E0,1.084039760E1
2.158702583E0,-4.885839844E0,1.764081573E0,1.009545639E1,1.135348645E1
2.168660583E0,-4.628674622E0,1.816322937E0,1.036100418E1,1.149234812E1
2.178619583E0,-4.494403839E0,1.630409546E0,1.038764877E1,1.143508409E1
2.188578583E0,-4.329147491E0,1.616638184E0,9.960586853E0,1.098036099E1
2.198536583E0,-4.134103088E0,1.894011383E0,9.287436676E0,1.034091715E1
2.208495583E0,-4.222120056E0,2.110311584E0,8.710835724E0,9.907490689E0
2.218453583E0,-4.285438385E0,2.381697235E0,8.449628906E0,9.769016968E0
2.228412583E0,-4.138893127E0,2.533631287E0,8.781339111E0,1.003302748E1
2.238370583E0,-4.109554138E0,2.315684509E0,9.784103851E0,1.086183770E1
2.248329583E0,-4.092639313E0,2.202070770E0,1.075408676E1,1.171534013E1
2.258287583E0,-3.883374481E0,2.195783844E0,1.137948624E1,1.222271537E1
2.268246583E0,-3.657494202E0,2.389630737E0,1.144579834E1,1.225128151E1
2.278205583E0,-3.654500427E0,2.766696625E0,1.117950211E1,1.208268393E1
2.288163583E0,-3.693868561E0,3.134481812E0,1.095511871E1,1.197849186E1
2.298122583E0,-3.963757324E0,3.123404846E0,1.104912323E1,1.214702244E1
2.308080583E0,-4.225413208E0,2.918930054E0,1.161300064E1,1.269787594E1
2.318039583E0,-4.044439545E0,2.935695190E0,1.228360611E1,1.326132635E1
2.327997583E0,-3.460803223E0,3.004701691E0,1.262714172E1,1.343317160E1
2.337956583E0,-2.688708801E0,3.004102936E0,1.257355316E1,1.320409136E1
2.347914583E0,-2.170785828E0,2.875520325E0,1.217133957E1,1.269340124E1
2.357873583E0,-1.973645782E0,2.926564178E0,1.182196609E1,1.233770392E1
2.367832583E0,-1.882185974E0,3.183879089E0,1.174128387E1,1.231005512E1
2.377790583E0,-1.806144104E0,3.556005249E0,1.212029572E1,1.275965901E1
2.387749583E0,-1.912423096E0,3.758234711E0,1.275707153E1,1.343594300E1
2.397707583E0,-2.249073029E0,3.589685211E0,1.347916992E1,1.412912563E1
2.407666583E0,-2.103126526E0,3.260819092E0,1.382480118E1,1.435901145E1
2.417624583E0,-1.399739227E0,2.928659821E0,1.369696701E1,1.407633559E1
2.427583583E0,-4.993615723E-1,2.833607483E0,1.329789688E1,1.360561483E1
2.437542583E0,9.595046997E-2,2.881507874E0,1.303204971E1,1.334715752E1
2.447500583E0,3.168910217E-1,2.883004761E0,1.286604492E1,1.318890626E1
2.457459583E0,3.878434753E-1,2.959495697E0,1.279913406E1,1.314255950E1
2.467417583E0,4.137396240E-1,3.086431732E0,1.289912613E1,1.326969089E1
2.477376583E0,3.252735901E-1,2.924767914E0,1.305809555E1,1.338558664E1
2.487334583E0,1.387614441E-1,2.443368988E0,1.305614960E1,1.328353677E1
2.497293583E0,2.399510193E-1,1.905387726E0,1.301663177E1,1.315753707E1
2.507251583E0,8.279283142E-1,1.766476593E0,1.297546738E1,1.312130552E1
2.517210583E0,1.600172424E0,1.883832550E0,1.299582504E1,1.322878851E1
2.527169583E0,2.294728088E0,2.064656525E0,1.314326843E1,1.350089214E1
2.537127583E0,2.930306396E0,2.381248169E0,1.310180466E1,1.363504029E1
2.547086583E0,3.360960846E0,2.557880859E0,1.316123108E1,1.382233033E1
2.557044583E0,3.568728790E0,2.669997711E0,1.342393478E1,1.414449497E1
2.567003583E0,3.649860077E0,2.743045807E0,1.372675507E1,1.446615303E1
2.576961583E0,3.559298401E0,2.602637787E0,1.396925079E1,1.464862780E1
2.586920583E0,3.472928009E0,2.381397858E0,1.396984955E1,1.459071558E1
2.596878583E0,3.534599762E0,2.229164429E0,1.384545822E1,1.446234016E1
2.606837583E0,3.542982330E0,2.199076996E0,1.369951172E1,1.432010072E1
2.616796583E0,3.466491394E0,2.217638397E0,1.354383545E1,1.415520969E1
2.626754583E0,3.368295593E0,2.250270538E0,1.329310684E1,1.389661190E1
2.636713583E0,3.414998474E0,2.300416260E0,1.301558395E1,1.365135727E1
2.646671583E0,3.622167664E0,2.384990387E0,1.262594421E1,1.335000918E1
2.656630583E0,3.938010864E0,2.459834747E0,1.228180984E1,1.313017782E1
2.666588583E0,4.246818695E0,2.510579224E0,1.221175552E1,1.317062831E1
2.676547583E0,4.393663330E0,2.666255493E0,1.237895782E1,1.340342466E1
2.686505583E0,4.448898468E0,2.971021729E0,1.250260071E1,1.359906953E1
2.696464583E0,4.584516449E0,3.018922119E0,1.245799347E1,1.361371673E1
2.706423583E0,4.693639526E0,2.680026855E0,1.229588058E1,1.343136163E1
2.716381583E0,4.801565094E0,2.258802795E0,1.183513870E1,1.297026312E1
2.726340583E0,4.918471985E0,2.109263763E0,1.124940674E1,1.245750827E1
2.736298583E0,4.923860779E0,2.118394775E0,1.075648178E1,1.201806564E1
2.746257583E0,4.834646301E0,2.172881470E0,1.032522858E1,1.160627261E1
2.756215583E0,4.671485596E0,2.203417969E0,9.977950745E0,1.123553868E1
2.766174583E0,4.183051300E0,2.252964935E0,9.953102417E0,1.102896264E1
2.776132583E0,3.763773193E0,2.359543304E0,1.019200562E1,1.111802193E1
2.786091583E0,3.643573151E0,2.574645996E0,1.041159897E1,1.132721592E1
2.796050583E0,3.768862610E0,2.622247009E0,1.072639435E1,1.166773502E1
2.806008583E0,3.847149811E0,2.414329376E0,1.100481537E1,1.190527233E1
2.815967583E0,3.959266663E0,2.091151428E0,1.089180038E1,1.177624823E1
2.825925583E0,4.136498108E0,1.537153473E0,1.028256729E1,1.118948826E1
2.835884583E0,3.934118958E0,1.123114471E0,9.369316406E0,1.022363771E1
2.845842583E0,3.494483185E0,8.421487427E-1,8.631949768E0,9.350464375E0
2.855801583E0,2.882855072E0,6.622229004E-1,8.288563843E0,8.800550160E0
2.865760583E0,2.491868134E0,6.450086975E-1,8.443940735E0,8.827546553E0
2.875718583E0,2.512824554E0,8.699908447E-1,8.698112183E0,9.095511357E0
2.885677583E0,2.862347717E0,1.185534668E0,8.940607910E0,9.462187734E0
2.895635583E0,3.068020020E0,1.285077667E0,9.216035156E0,9.797932203E0
2.905594583E0,3.041525116E0,1.070424042E0,9.445058899E0,9.980271553E0
2.915552583E0,2.814297638E0,6.378236389E-1,9.633966064E0,1.005685797E1
2.925511583E0,2.475252686E0,1.411564636E-1,9.724827118E0,1.003588877E1
2.935469583E0,2.428250427E0,-1.886077881E-1,9.710756378E0,1.001153147E1
2.945428583E0,2.267335052E0,-1.939965820E-1,9.742789764E0,1.000501851E1
2.955387583E0,2.008373566E0,-8.232879639E-2,9.907147980E0,1.010900210E1
2.965345583E0,1.771116943E0,-1.451980591E-2,1.008048752E1,1.023490570E1
2.975304583E0,1.563498688E0,7.334747314E-2,1.012943573E1,1.024965249E1
2.985262583E0,1.317859497E0,2.390528870E-1,1.003363495E1,1.012263455E1
2.995220792E0,1.087189178E0,2.245330811E-1,9.805060272E0,9.867705020E0
3.005178792E0,8.481362915E-1,-3.248245239E-2,9.590556335E0,9.628040356E0
3.015137792E0,5.270539856E-1,-2.392025757E-1,9.387578430E0,9.405404434E0
3.025095792E0,1.630110168E-1,-3.911366272E-1,9.214089203E0,9.223827855E0
3.035054792E0,-7.499404907E-2,-4.622387695E-1,8.997040558E0,9.009219033E0
3.045012792E0,-2.308200073E-1,-2.977308655E-1,8.737031250E0,8.745149319E0
3.054971792E0,-4.614903259E-1,-1.660047913E-1,8.480614471E0,8.494783854E0
3.064930792E0,-7.375163269E-1,-9.355545044E-2,8.211623840E0,8.245207641E0
3.074888792E0,-9.939331055E-1,1.556762695E-2,7.888595581E0,7.950980167E0
3.084847792E0,-1.165925446E0,1.390608215E-1,7.554789734E0,7.645493312E0
3.094805792E0,-1.412313080E0,1.939965820E-1,7.298372955E0,7.436296841E0
3.104764792E0,-1.573976898E0,2.321672058E-1,7.004683685E0,7.183098107E0
3.114722792E0,-1.518592072E0,3.393443298E-1,6.779252472E0,6.955540276E0
3.124681792E0,-1.545086975E0,4.552033997E-1,6.692882080E0,6.883979549E0
3.134640792E0,-1.720671844E0,6.165678406E-1,6.405629425E0,6.661302863E0
3.144598792E0,-1.899849243E0,9.512718201E-1,6.249354401E0,6.600664788E0
3.154557792E0,-2.212399292E0,1.289119263E0,6.371051331E0,6.866355231E0
3.164515792E0,-2.549947357E0,1.515747986E0,6.721322937E0,7.346829623E0
3.174474792E0,-2.722239075E0,1.633253632E0,6.883286133E0,7.580087796E0
3.184432792E0,-2.723436584E0,1.666334839E0,6.941515045E0,7.640576532E0
3.194391792E0,-2.676733704E0,1.766326904E0,6.992259521E0,7.692626812E0
3.204349792E0,-2.680176544E0,1.948049011E0,6.955436096E0,7.704306104E0
3.214308792E0,-2.752775574E0,2.155966644E0,6.907236328E0,7.741826608E0
3.224267792E0,-2.902763672E0,2.303709412E0,6.919810181E0,7.849642471E0
3.234225792E0,-2.929258575E0,2.250270538E0,6.955136719E0,7.875163495E0
3.244184792E0,-2.981949005E0,2.075284424E0,6.844965820E0,7.749347223E0
3.254142792E0,-3.120560760E0,2.120490417E0,6.716532898E0,7.703648048E0
3.264101792E0,-3.390599213E0,2.266736298E0,6.734046478E0,7.872841827E0
3.274059792E0,-3.812272339E0,2.303110657E0,6.829098816E0,8.153179117E0
3.284018792E0,-4.164938965E0,2.345472565E0,6.968309326E0,8.450165265E0
3.293976792E0,-4.436773682E0,2.404599609E0,7.287445679E0,8.864193393E0
3.303935792E0,-4.682562561E0,2.508483582E0,7.621999969E0,9.290520198E0
3.313894792E0,-4.713099060E0,2.672991486E0,7.833210754E0,9.524567022E0
3.323852792E0,-4.530478821E0,2.893183594E0,7.920179901E0,9.572094824E0
3.333811792E0,-4.512665863E0,3.052901459E0,7.861651611E0,9.565036674E0
3.343769792E0,-4.703219604E0,2.993325348E0,7.859256592E0,9.635776329E0
3.353728792E0,-4.931644592E0,2.971770172E0,8.221503296E0,1.003721340E1
3.363686792E0,-5.097649384E0,2.998414764E0,8.724607086E0,1.054017501E1
3.373645792E0,-5.224136353E0,2.880759430E0,9.063652039E0,1.085081397E1
3.383603792E0,-5.076692963E0,2.818488922E0,9.201814728E0,1.088072082E1
3.393562792E0,-5.027744751E0,3.105442200E0,9.274264069E0,1.099699789E1
3.403521792E0,-5.017416229E0,3.563489685E0,9.432934113E0,1.126291127E1
3.413479792E0,-4.826862488E0,4.055666199E0,9.922865295E0,1.175628706E1
3.423438792E0,-4.714595947E0,4.420158234E0,1.048479675E1,1.231650018E1
3.433396792E0,-4.511917419E0,4.326902161E0,1.108804230E1,1.272887124E1
3.443355792E0,-4.264781342E0,4.268822937E0,1.164473465E1,1.311529848E1
3.453313792E0,-3.886517944E0,4.364324341E0,1.210502747E1,1.344187631E1
3.463272792E0,-3.723357239E0,4.424199829E0,1.240859619E1,1.368978425E1
3.473230792E0,-3.538042603E0,4.551584930E0,1.246068787E1,1.372965451E1
3.483189792E0,-3.321143646E0,4.758903809E0,1.235126541E1,1.364664493E1
3.493148792E0,-3.207380219E0,4.707710266E0,1.221400085E1,1.347707834E1
3.503106792E0,-3.157234497E0,4.554279327E0,1.222148529E1,1.341917630E1
3.513065792E0,-2.895877991E0,4.514312439E0,1.265887573E1,1.374817300E1
3.523023792E0,-2.337089996E0,4.583019562E0,1.329849564E1,1.425889351E1
3.532982792E0,-1.472787323E0,4.705914001E0,1.377690079E1,1.463276202E1
3.542940792E0,-8.018824768E-1,4.844974823E0,1.410112656E1,1.493179717E1
3.552899792E0,-4.740641785E-1,4.771178284E0,1.413989594E1,1.493069108E1
3.562858792E0,-2.933898926E-1,4.664001160E0,1.406624908E1,1.482222479E1
3.572816792E0,-4.323010254E-1,4.607418823E0,1.397598679E1,1.472220768E1
3.582775792E0,-6.697073364E-1,4.495451660E0,1.392554169E1,1.464849155E1
3.592733792E0,-6.973997498E-1,4.237238617E0,1.396910110E1,1.461425137E1
3.602692792E0,-2.704875183E-1,3.866759033E0,1.390877655E1,1.443880376E1
3.612650792E0,5.405259705E-1,3.697161713E0,1.373633514E1,1.423545139E1
3.622609792E0,1.559606781E0,3.619024200E0,1.352512436E1,1.408753699E1
3.632567792E0,2.496658173E0,3.558999023E0,1.336136490E1,1.405083087E1
3.642526792E0,3.165916443E0,3.461401978E0,1.344653778E1,1.424126781E1
3.652485792E0,3.635939026E0,3.407963104E0,1.371582779E1,1.459308730E1
3.662443792E0,3.912414093E0,3.472478943E0,1.405741745E1,1.499920263E1
3.672402792E0,4.030219116E0,3.472179565E0,1.439661209E1,1.534800107E1
3.682360792E0,4.353097687E0,3.474574585E0,1.462249237E1,1.564734518E1
3.692319792E0,4.733007660E0,3.779191132E0,1.447714462E1,1.569303551E1
3.702277792E0,5.094505920E0,4.096830597E0,1.429587158E1,1.571973142E1
3.712236792E0,5.333858185E0,4.120930481E0,1.409334274E1,1.562224122E1
3.722194792E0,5.421426086E0,4.155658264E0,1.346105759E1,1.509507959E1
3.732153792E0,5.368585968E0,4.174069977E0,1.291708878E1,1.459779976E1
3.742112792E0,5.262756042E0,4.076472931E0,1.259765305E1,1.424833657E1
3.752070792E0,5.512436829E0,3.847898254E0,1.244227615E1,1.414225996E1
3.762029792E0,6.085744629E0,3.632346497E0,1.234452942E1,1.423438216E1
3.771987792E0,6.342460785E0,3.390150146E0,1.219514008E1,1.415773175E1
3.781946792E0,6.163133698E0,3.081042938E0,1.198752182E1,1.382670322E1
3.791904792E0,5.578299866E0,3.192411346E0,1.148172363E1,1.315822546E1
3.801863792E0,4.901706848E0,3.262465668E0,1.121033798E1,1.266262571E1
3.811821792E0,4.112248535E0,3.113076324E0,1.125913651E1,1.238426369E1
3.821780792E0,3.694617004E0,3.008144531E0,1.129805557E1,1.226153286E1
3.831739792E0,3.819756775E0,3.035986633E0,1.102846619E1,1.205963611E1
3.841697792E0,4.319417725E0,3.214864655E0,1.060230240E1,1.189123797E1
3.851656792E0,5.015320587E0,3.452720032E0,1.028720764E1,1.195413557E1
3.861614792E0,5.233417053E0,3.538641357E0,9.966275024E0,1.179988452E1
3.871573792E0,4.979395294E0,3.216361542E0,9.516909485E0,1.121208835E1
3.881531792E0,4.527035980E0,2.666405182E0,9.086255035E0,1.049589453E1
3.891490792E0,4.009711761E0,2.305056610E0,8.685089264E0,9.839809445E0
3.901449792E0,3.544179840E0,2.263293457E0,8.642877045E0,9.611609211E0
3.911407792E0,3.288960571E0,2.499352570E0,8.838370514E0,9.756065716E0
3.921366792E0,3.338657227E0,2.682721252E0,9.064849548E0,1.002572305E1
3.931324792E0,3.619622955E0,2.675236816E0,8.983269196E0,1.004777029E1
3.941283792E0,3.738475800E0,2.595003662E0,8.463250580E0,9.609206819E0
3.951241792E0,3.777394867E0,2.624342651E0,7.626939697E0,8.906519830E0
3.961200792E0,3.910468140E0,2.538720703E0,7.088808746E0,8.484578559E0
3.971158792E0,3.908971252E0,2.325563965E0,6.900500336E0,8.264696539E0
3.981117792E0,3.901935883E0,2.054178314E0,7.070247345E0,8.332655621E0
3.991076792E0,3.955225067E0,1.844314728E0,7.425758057E0,8.613198295E0
4.001035042E0,4.049379272E0,1.874102783E0,7.755971375E0,8.947895043E0
4.010994042E0,4.141886902E0,1.972897339E0,7.958051147E0,9.185756860E0
4.020952042E0,3.978726196E0,1.873653717E0,7.995173950E0,9.124891610E0
4.030911042E0,3.689527588E0,1.793869629E0,7.975115662E0,8.968447574E0
4.040869042E0,3.296295319E0,1.676813049E0,8.046367493E0,8.855579860E0
4.050828042E0,2.798131256E0,1.473535767E0,8.165819092E0,8.756794369E0
4.060786042E0,2.438578949E0,1.401385803E0,8.470735016E0,8.925463639E0
4.070745042E0,2.304158478E0,1.406475220E0,8.894653473E0,9.295277254E0
4.080704042E0,2.371967468E0,1.394799500E0,9.101972351E0,9.508816750E0
4.090662042E0,2.502795410E0,1.301543427E0,9.083410950E0,9.511380270E0
4.100621042E0,2.439028015E0,1.144370270E0,8.827892303E0,9.229849592E0
4.110579042E0,2.119442596E0,9.431886292E-1,8.513246613E0,8.823661915E0
4.120538042E0,1.670226746E0,6.779402161E-1,8.253237305E0,8.447791802E0
4.130496042E0,1.362017670E0,3.600013733E-1,8.063581696E0,8.185721891E0
4.140455042E0,1.106349335E0,2.583627319E-1,7.768096161E0,7.850737425E0
4.150413042E0,7.438032532E-1,3.790118408E-1,7.495962067E0,7.542303399E0
4.160372042E0,2.963836670E-1,5.777984619E-1,7.381450195E0,7.409959604E0
4.170331042E0,-1.588197327E-1,7.818241882E-1,7.443720703E0,7.486350959E0
4.180289042E0,-4.790039062E-1,7.864645386E-1,7.368726654E0,7.426042265E0
4.190248042E0,-7.038363647E-1,8.216413879E-1,7.086713104E0,7.168820183E0
4.200206042E0,-7.734416199E-1,9.306147766E-1,6.824308777E0,6.930760859E0
4.210165042E0,-8.003855896E-1,9.845027161E-1,6.726711731E0,6.845327852E0
4.220123042E0,-8.526269531E-1,1.114133148E0,6.694229279E0,6.839661616E0
4.230082042E0,-8.149053955E-1,1.307680664E0,6.616391144E0,6.793432953E0
4.240041042E0,-7.467970276E-1,1.422342224E0,6.524631958E0,6.719492941E0
4.249999042E0,-7.981402588E-1,1.469045105E0,6.605613556E0,6.813901367E0
4.259958042E0,-9.346563721E-1,1.332978058E0,6.837631073E0,7.028770286E0
4.269916042E0,-1.163680115E0,1.090332642E0,7.095095673E0,7.272094559E0
4.279875042E0,-1.528022461E0,8.801696777E-1,7.443571014E0,7.649594809E0
4.289833042E0,-1.804946594E0,8.180488586E-1,7.712112579E0,7.962645074E0
4.299792042E0,-1.944606171E0,9.276210022E-1,7.799381104E0,8.091496739E0
4.309750042E0,-2.047442322E0,1.142124939E0,7.862699432E0,8.204785908E0
4.319709042E0,-2.132166138E0,1.226699066E0,8.041278076E0,8.409106738E0
4.329668042E0,-2.390828247E0,1.114731903E0,8.271050262E0,8.681529783E0
4.339626042E0,-2.684816895E0,1.035546570E0,8.552614746E0,9.023736335E0
4.349585042E0,-2.823428650E0,9.535171509E-1,8.820108490E0,9.309954784E0
4.359543042E0,-3.008144531E0,1.108594666E0,8.763077087E0,9.331100455E0
4.369502042E0,-2.960693207E0,1.421893158E0,8.598269806E0,9.204223382E0
4.379460042E0,-3.057392120E0,1.551822968E0,8.542585602E0,9.204975278E0
4.389419042E0,-3.425177307E0,1.508263550E0,8.763077087E0,9.528809924E0
4.399377042E0,-3.866160278E0,1.559756470E0,9.277706909E0,1.017132641E1
4.409336042E0,-4.256548462E0,1.777852936E0,1.003707779E1,1.104635218E1
4.419295042E0,-4.361480255E0,1.790277100E0,1.064241898E1,1.163996064E1
4.429253042E0,-4.506229248E0,1.715283051E0,1.055859329E1,1.160741962E1
4.439212042E0,-4.593198395E0,1.654210052E0,1.023990601E1,1.134414199E1
4.449170042E0,-4.816533966E0,1.751956787E0,9.807904358E0,1.106631555E1
4.459129042E0,-5.201982422E0,1.899998932E0,9.513017578E0,1.100763919E1
4.469087042E0,-5.358856201E0,1.923949127E0,9.447004852E0,1.103017773E1
4.479046042E0,-5.411696320E0,1.878892822E0,9.578281860E0,1.116065315E1
4.489004042E0,-5.290897522E0,1.672322388E0,1.003887405E1,1.147036403E1
4.498963042E0,-5.023553467E0,1.322499847E0,1.044378204E1,1.166437648E1
4.508922042E0,-4.719385986E0,1.301244049E0,1.052341644E1,1.160638332E1
4.518880042E0,-4.737348633E0,1.469344482E0,1.039243881E1,1.151539099E1
4.528839042E0,-5.143154755E0,1.827549591E0,1.021805145E1,1.158449627E1
4.538797042E0,-5.418881378E0,2.195634155E0,1.009306137E1,1.166426048E1
4.548756042E0,-5.544919281E0,2.465971985E0,1.049781967E1,1.212564908E1
4.558714042E0,-5.512586517E0,2.677931213E0,1.120225479E1,1.276912049E1
4.568673042E0,-5.279221802E0,2.733765106E0,1.192510162E1,1.332485284E1
4.578632042E0,-4.895868988E0,2.566712494E0,1.221235428E1,1.340519091E1
4.588590042E0,-4.390968933E0,2.373015289E0,1.189052353E1,1.289559458E1
4.598549042E0,-3.941453705E0,2.379302216E0,1.133847153E1,1.223752724E1
4.608507042E0,-3.638334045E0,2.405048676E0,1.065184937E1,1.151015329E1
4.618466042E0,-3.238665161E0,2.571053467E0,1.027882507E1,1.107941843E1
4.628424042E0,-2.838247833E0,2.739602966E0,1.052536240E1,1.124029932E1
4.638383042E0,-2.683170319E0,2.636317749E0,1.133323242E1,1.194117797E1
4.648341042E0,-2.582878876E0,2.545606384E0,1.234482880E1,1.286647478E1
4.658300042E0,-2.537672882E0,2.633323975E0,1.322484879E1,1.372118086E1
4.668259042E0,-2.273172913E0,2.658920746E0,1.396895142E1,1.440030480E1
4.678217042E0,-1.772763519E0,2.529589691E0,1.449091599E1,1.481648273E1
4.688176042E0,-1.034498749E0,2.541864166E0,1.473356140E1,1.498696409E1
4.698134042E0,-5.230123901E-1,2.856210480E0,1.450423828E1,1.479203868E1
4.708093042E0,-2.213896179E-1,2.973416748E0,1.416414551E1,1.447457213E1
4.718051042E0,7.394622803E-2,2.973267059E0,1.380803604E1,1.412471750E1
4.728010042E0,2.658471680E-1,2.982248383E0,1.343950241E1,1.376897619E1
4.737968042E0,3.471281433E-1,2.676883392E0,1.321736435E1,1.349017876E1
4.747927042E0,4.320016479E-1,2.220332794E0,1.299537598E1,1.319076571E1
4.757886042E0,6.827302551E-1,1.814975739E0,1.268866379E1,1.283598248E1
4.767844042E0,9.713301086E-1,1.442250824E0,1.236907837E1,1.249070332E1
4.777803042E0,1.300495605E0,1.213077393E0,1.220816299E1,1.233702109E1
4.787761042E0,1.491348724E0,1.080453186E0,1.222852066E1,1.236641491E1
4.797720042E0,1.557810516E0,1.070124664E0,1.243030106E1,1.257315890E1
4.807678042E0,1.705403595E0,1.300645294E0,1.272743317E1,1.290688323E1
4.817637042E0,2.027533722E0,1.670376434E0,1.308758423E1,1.334862957E1
4.827596042E0,2.416724396E0,2.000739441E0,1.325269089E1,1.361900624E1
4.837554042E0,2.687660980E0,2.227966919E0,1.332349365E1,1.377326545E1
4.847513042E0,2.936743011E0,2.402354279E0,1.329235840E1,1.382326146E1
4.857471042E0,3.111280060E0,2.565215607E0,1.299567535E1,1.360690900E1
4.867430042E0,3.201392670E0,2.499651947E0,1.251412674E1,1.315676795E1
4.877388042E0,3.531156921E0,2.374063110E0,1.203617065E1,1.276615247E1
4.887347042E0,3.883075104E0,2.274520111E0,1.170266418E1,1.253810444E1
4.897305042E0,4.162244568E0,2.004481659E0,1.161809006E1,1.250288939E1
4.907264042E0,4.367168427E0,1.850751343E0,1.166509232E1,1.259253030E1
4.917223042E0,4.263733521E0,2.031275940E0,1.188663162E1,1.279052449E1
4.927181042E0,3.751498718E0,2.228565674E0,1.233180588E1,1.308104292E1
4.937140042E0,3.028801575E0,2.400408325E0,1.252954468E1,1.311202078E1
4.947098042E0,2.762205963E0,2.605182495E0,1.253972351E1,1.310196258E1
4.957057042E0,2.905458069E0,2.638862457E0,1.268746628E1,1.328070338E1
4.967015042E0,3.192411346E0,2.606978760E0,1.251367767E1,1.317497466E1
4.976974042E0,3.547772369E0,2.676733704E0,1.191911407E1,1.272072610E1
4.986932042E0,3.966302032E0,2.653082886E0,1.126123215E1,1.223052534E1
4.996892667E0,4.158202972E0,2.501298523E0,1.083027832E1,1.186769037E1
5.006851667E0,4.221670990E0,2.385589142E0,1.041264679E1,1.148637256E1
5.016809667E0,4.257147217E0,2.413730621E0,1.012494507E1,1.124561739E1
5.026768667E0,4.261338501E0,2.531236267E0,9.895621948E0,1.106749731E1
5.036726667E0,4.301006012E0,2.789748688E0,9.668693848E0,1.094371926E1
5.046685667E0,4.314178619E0,2.652783508E0,9.906998291E0,1.112645553E1
5.056643667E0,3.910168762E0,2.399959259E0,1.004141876E1,1.103989651E1
5.066602667E0,3.473077698E0,2.389481049E0,9.643396454E0,1.052458947E1
5.076561667E0,3.203039246E0,2.315235443E0,9.250912628E0,1.005977932E1
5.086519667E0,2.959944763E0,2.265089722E0,8.818611603E0,9.573913257E0
5.096478667E0,2.957699432E0,2.193987579E0,8.632099457E0,9.384812649E0
5.106436667E0,3.121159515E0,2.121687927E0,8.613687744E0,9.404191243E0
5.116395667E0,3.350332947E0,2.154170380E0,8.679999847E0,9.550265872E0
5.126353667E0,3.613785095E0,2.239492950E0,8.857530670E0,9.824999795E0
5.136312667E0,3.616030426E0,2.151176605E0,9.196425934E0,1.011323325E1
5.146270667E0,3.402125244E0,2.129771118E0,9.500443726E0,1.031352569E1
5.156229667E0,3.343896332E0,2.271975403E0,9.591304779E0,1.040848895E1
5.166188667E0,3.305875397E0,2.290836182E0,9.638157349E0,1.044369760E1
5.176146667E0,3.200195160E0,2.077679443E0,9.750872955E0,1.047079387E1
5.186105667E0,3.076103210E0,1.911075897E0,9.822124786E0,1.046846490E1
5.196063667E0,2.870131531E0,2.032623138E0,9.573491821E0,1.019906650E1
5.206022667E0,2.701582031E0,2.045646057E0,9.329349518E0,9.925722930E0
5.215980667E0,2.590962067E0,1.886227570E0,9.254355469E0,9.793571055E0
5.225939667E0,2.549498291E0,1.631756744E0,9.226064301E0,9.709934814E0
5.235897667E0,2.509082336E0,1.443148956E0,9.115444336E0,9.563968764E0
5.245856667E0,2.329156494E0,1.429078217E0,8.927135925E0,9.336005053E0
5.255815667E0,2.000440063E0,1.541045380E0,8.850644989E0,9.203830617E0
5.265773667E0,1.635798340E0,1.717678070E0,8.877888336E0,9.189295700E0
5.275732667E0,1.386865997E0,1.644629974E0,9.018296356E0,9.271346947E0
5.285690667E0,1.353186035E0,1.476828918E0,9.126221924E0,9.343450257E0
5.295649667E0,1.475182343E0,1.402283936E0,9.048084412E0,9.274178923E0
5.305607667E0,1.659598846E0,1.414408722E0,8.734187164E0,9.002268924E0
5.315566667E0,1.768123169E0,1.461410980E0,8.375233612E0,8.683692743E0
5.325525667E0,1.755100250E0,1.482816467E0,8.136480103E0,8.454669126E0
5.335483667E0,1.538800049E0,1.479523315E0,7.954608307E0,8.236060232E0
5.345442667E0,1.112486572E0,1.472487946E0,7.803123322E0,8.018390156E0
5.355400667E0,5.471122742E-1,1.448837128E0,7.692952423E0,7.847291115E0
5.365359667E0,5.328918457E-2,1.474583588E0,7.620353394E0,7.761895538E0
5.375317667E0,-2.339634705E-1,1.558409271E0,7.498057709E0,7.661869730E0
5.385276667E0,-4.007167053E-1,1.591640167E0,7.324568481E0,7.506210478E0
5.395234667E0,-6.322851562E-1,1.600172424E0,7.025490417E0,7.233108040E0
5.405193667E0,-9.518705750E-1,1.613345032E0,6.757996674E0,7.012806772E0
5.415152667E0,-1.348096619E0,1.580563202E0,6.516099701E0,6.839232401E0
5.425110667E0,-1.731150055E0,1.544338531E0,6.436764679E0,6.842061206E0
5.435069667E0,-1.940863953E0,1.346300354E0,6.475683746E0,6.893036886E0
5.445027667E0,-1.982028351E0,1.345551910E0,6.684349823E0,7.100667496E0
5.454986667E0,-1.968256989E0,1.574575653E0,6.931934967E0,7.375977660E0
5.464944667E0,-2.097737732E0,1.950743408E0,7.176975403E0,7.727540318E0
5.474903667E0,-2.287093964E0,2.277214508E0,7.384893036E0,8.059351703E0
5.484862667E0,-2.411036224E0,2.429148560E0,7.437433777E0,8.187141112E0
5.494820667E0,-2.604284363E0,2.461780701E0,7.435637512E0,8.254172670E0
5.504779667E0,-2.850971375E0,2.388283539E0,7.538922729E0,8.406384000E0
5.514737667E0,-3.091521149E0,2.070045319E0,7.870632935E0,8.705713838E0
5.524696667E0,-3.187172241E0,1.846709747E0,8.287366333E0,9.069114870E0
5.534654667E0,-3.302432556E0,1.976190491E0,8.625363464E0,9.445013739E0
5.544613667E0,-3.403322754E0,2.399959259E0,8.546028442E0,9.506682510E0
5.554571667E0,-3.378773804E0,2.745590515E0,8.248447266E0,9.326910635E0
5.564530667E0,-3.345991974E0,2.905907135E0,7.933202820E0,9.087115359E0
5.574489667E0,-3.549568634E0,2.826871490E0,7.891589355E0,9.103176504E0
5.584447667E0,-3.876039734E0,2.598147125E0,8.212671661E0,9.445741280E0
5.594406667E0,-4.397405548E0,2.442620544E0,8.649912415E0,1.000622583E1
5.604364667E0,-4.989873505E0,2.516267395E0,9.054521027E0,1.064024390E1
5.614323667E0,-5.380710754E0,2.825823669E0,9.224268036E0,1.104646769E1
5.624281667E0,-5.488935699E0,3.414848785E0,9.091045074E0,1.115512025E1
5.634240667E0,-5.283413086E0,3.795357513E0,9.006770325E0,1.111040522E1
5.644198667E0,-4.940326538E0,3.980073395E0,8.842262421E0,1.088271176E1
5.654157667E0,-4.643942871E0,3.958368530E0,8.606652374E0,1.055032473E1
5.664116667E0,-4.406835938E0,3.802991638E0,8.517886963E0,1.031684771E1
5.674074667E0,-4.234843597E0,3.849395142E0,8.634045410E0,1.035849812E1
5.684033667E0,-4.077670441E0,4.015998688E0,9.065448303E0,1.072091389E1
5.693991667E0,-4.057163086E0,4.336182861E0,9.218280487E0,1.096538870E1
5.703950667E0,-4.216581573E0,4.770280151E0,9.135802002E0,1.113543942E1
5.713908667E0,-4.182302856E0,5.068909149E0,9.154962158E0,1.126937573E1
5.723867667E0,-3.927682343E0,5.164709930E0,9.187594299E0,1.124779117E1
5.733826667E0,-3.655398560E0,5.150190125E0,9.385782166E0,1.131279381E1
5.743784667E0,-3.185226288E0,4.858297119E0,9.436826019E0,1.108162455E1
5.753743667E0,-2.516117706E0,4.448748779E0,8.965456238E0,1.031996219E1
5.763701667E0,-3.209176483E0,5.089715881E0,8.747060394E0,1.061673617E1
5.773660667E0,-4.149071960E0,5.745502167E0,9.076974335E0,1.151594791E1
5.783618667E0,-4.482578430E0,5.787415009E0,9.603728943E0,1.207556589E1
5.793577667E0,-4.478836212E0,5.734425201E0,1.014006363E1,1.248056476E1
5.803536667E0,-4.136348419E0,5.570516052E0,1.058688446E1,1.265788884E1
5.813494667E0,-3.612737274E0,5.567522278E0,1.085991669E1,1.272741000E1
5.823453667E0,-2.938539276E0,5.850583649E0,1.092563004E1,1.273710068E1
5.833411667E0,-2.422262878E0,6.152805176E0,1.082788330E1,1.268729387E1
5.843370667E0,-1.700613556E0,6.356531525E0,1.066741699E1,1.253360941E1
5.853328667E0,-6.963519287E-1,6.541247406E0,1.056967026E1,1.244952822E1
5.863287667E0,3.068618774E-2,6.748566284E0,1.061307999E1,1.257702490E1
5.873245667E0,1.451980591E-1,6.634054413E0,1.074196198E1,1.262622301E1
5.883204667E0,-1.417552185E-1,6.381529541E0,1.106723557E1,1.277606030E1
5.893163667E0,-4.188290405E-1,6.117179260E0,1.162572418E1,1.314354452E1
5.903121667E0,-3.159928894E-1,5.896538086E0,1.194740524E1,1.332702161E1
5.913080667E0,-6.960525513E-2,5.873036957E0,1.174322983E1,1.313015060E1
5.923038667E0,3.399430847E-1,5.910010071E0,1.130374374E1,1.276003146E1
5.932997667E0,8.952882385E-1,6.042634277E0,1.096320190E1,1.255016996E1
5.942955667E0,1.426832886E0,6.167474670E0,1.072639435E1,1.245508457E1
5.952914667E0,1.714235229E0,6.250701599E0,1.059885956E1,1.242359436E1
5.962872667E0,1.668729858E0,6.214776306E0,1.044812302E1,1.227075297E1
5.972831667E0,1.632654877E0,6.023773499E0,1.024828857E1,1.199911779E1
5.982790667E0,1.539398804E0,5.849535828E0,1.012434631E1,1.179360871E1
5.992748667E0,1.362167358E0,5.799390106E0,1.009321106E1,1.172012521E1
6.002705542E0,1.411414948E0,5.666316833E0,1.013841705E1,1.169986064E1
6.012663542E0,1.554068298E0,5.505850525E0,1.011805939E1,1.162345233E1
6.022622542E0,1.907633057E0,5.500312042E0,9.999356232E0,1.157063617E1
6.032580542E0,2.204465790E0,5.371879120E0,9.798623657E0,1.138989817E1
6.042539542E0,2.387984161E0,5.163213043E0,9.513316956E0,1.108442316E1
6.052498542E0,2.350262604E0,4.947361908E0,9.441765747E0,1.091545073E1
6.062456542E0,1.951042786E0,4.935536499E0,9.517657928E0,1.089733458E1
6.072415542E0,1.580563202E0,4.974754944E0,9.484576721E0,1.082605941E1
6.082373542E0,1.589694214E0,4.938530273E0,9.449549561E0,1.078008330E1
6.092332542E0,1.631756744E0,4.922513580E0,9.352700958E0,1.069424075E1
6.102290542E0,1.643582153E0,4.999752960E0,9.209149475E0,1.060694706E1
6.112249542E0,1.701811066E0,5.016667786E0,9.118587799E0,1.054569865E1
6.122208542E0,1.779200134E0,4.912035370E0,9.104517059E0,1.049694601E1
6.132166542E0,1.792672119E0,4.661905518E0,9.104367371E0,1.038443747E1
6.142125542E0,1.624421997E0,4.448449402E0,8.924441528E0,1.010312355E1
6.152083542E0,1.493294678E0,4.338128815E0,8.666228485E0,9.805753758E0
6.162042542E0,1.413510590E0,4.412374420E0,8.383167114E0,9.578337595E0
6.172000542E0,1.260678406E0,4.565056915E0,8.169860687E0,9.443287475E0
6.181959542E0,1.054706726E0,4.736450500E0,8.161627808E0,9.495184995E0
6.191917542E0,9.617500305E-1,4.771777039E0,8.250991974E0,9.579858443E0
6.201876542E0,1.087338867E0,4.689747620E0,8.315358124E0,9.608393168E0
6.211835542E0,1.050515442E0,4.608466644E0,8.268056488E0,9.523775806E0
6.221793542E0,1.015039215E0,4.448599091E0,8.071215820E0,9.271723858E0
6.231752542E0,1.004860382E0,4.338577881E0,7.757019196E0,8.944515035E0
6.241710542E0,9.151968384E-1,4.329895935E0,7.484436035E0,8.694962152E0
6.251669542E0,9.786648560E-1,4.469854889E0,7.437882843E0,8.732667909E0
6.261627542E0,1.075962524E0,4.706512756E0,7.456593933E0,8.883116050E0
6.271586542E0,1.143621826E0,4.982239380E0,7.601492615E0,9.160418664E0
6.281544542E0,1.191073151E0,5.121000824E0,7.752378845E0,9.367106407E0
6.291503542E0,1.202150116E0,5.113516388E0,7.762108612E0,9.372488723E0
6.301462542E0,1.243613892E0,5.096601562E0,7.689509583E0,9.308623992E0
6.311420542E0,1.117426300E0,4.928800507E0,7.573351135E0,9.104798921E0
6.321379542E0,8.460406494E-1,4.831053772E0,7.599097595E0,9.044398796E0
6.331337542E0,7.924520874E-1,4.892126770E0,7.707921295E0,9.163674773E0
6.341296542E0,9.120533752E-1,5.020559692E0,7.802674255E0,9.323067442E0
6.351254542E0,1.033151550E0,5.212161255E0,7.849526825E0,9.478876434E0
6.361213542E0,1.211580505E0,5.311554565E0,7.869585114E0,9.571358790E0
6.371172542E0,1.367705841E0,5.380112000E0,7.763455811E0,9.543975614E0
6.381130542E0,1.279239807E0,5.515729980E0,7.627837830E0,9.499665344E0
6.391089542E0,9.372010803E-1,5.511538696E0,6.917115784E0,8.893924636E0
6.401047542E0,6.650669861E-1,5.402565308E0,6.631659393E0,8.579564809E0
6.411006542E0,6.671626282E-1,5.346881104E0,7.420219574E0,9.170272735E0
6.420964542E0,8.574169922E-1,5.376968536E0,7.966134338E0,9.649158038E0
6.430923542E0,1.195264435E0,5.619015198E0,8.722960510E0,1.044471297E1
6.440882542E0,1.384470978E0,5.942941589E0,8.850495300E0,1.075018984E1
6.450840542E0,1.374441833E0,6.074517975E0,8.726253662E0,1.072083775E1
6.460799542E0,1.183588715E0,6.018983459E0,8.976682892E0,1.087243670E1
6.470757542E0,9.879455566E-1,5.942941589E0,8.841813354E0,1.069917074E1
6.480716542E0,7.822732544E-1,6.008205872E0,8.251890106E0,1.023739125E1