"Time (s)","Acceleration x (m/s^2)","Acceleration y (m/s^2)","Acceleration z (m/s^2)","Absolute acceleration (m/s^2)"
1.680999994E-3,-5.508544922E-1,5.936205597E0,7.750283203E0,9.777978691E0
1.163899997E-2,-8.146060181E-1,5.715863800E0,7.537276154E0,9.494483333E0
2.159800002E-2,-8.548722839E-1,5.625451813E0,7.407945099E0,9.340993807E0
3.155600000E-2,-9.072633362E-1,5.682932281E0,7.325017548E0,9.315295387E0
4.151499999E-2,-1.040037231E0,5.691913605E0,7.302564240E0,9.317027552E0
5.147299997E-2,-8.171507263E-1,5.851182404E0,7.258106689E0,9.358642185E0
6.143200002E-2,-4.122427368E-1,6.151158600E0,7.417525177E0,9.645018193E0
7.139000000E-2,-4.616400146E-1,6.047723694E0,7.745792542E0,9.837955859E0
8.134899999E-2,-5.493576050E-1,5.548511810E0,7.840844879E0,9.621155102E0
9.130700002E-2,-2.487826538E-1,5.176685028E0,7.204069061E0,8.874602624E0
1.012650000E-1,-2.671943665E-1,5.145699463E0,6.741979980E0,8.485511761E0
1.112240000E-1,-6.249504089E-1,5.247038727E0,7.162305908E0,8.900595729E0
1.211820000E-1,-1.068777466E0,5.579197998E0,7.750283203E0,9.609194831E0
1.311410000E-1,-1.137634277E0,5.798791351E0,8.074059906E0,1.000553028E1
1.410990000E-1,-1.173409882E0,6.009702759E0,8.293952637E0,1.030936799E1
1.510580000E-1,-1.250050507E0,6.107599182E0,8.306825867E0,1.038598816E1
1.610160000E-1,-1.284778290E0,5.852230225E0,8.852590942E0,1.068960337E1
1.709750000E-1,-1.465003510E0,5.509892120E0,9.242979126E0,1.085991757E1
1.809330000E-1,-1.456022186E0,5.458249512E0,8.797505493E0,1.045507490E1
1.908920000E-1,-1.222358093E0,5.496719513E0,8.407716064E0,1.011917853E1
2.008500000E-1,-1.245410156E0,5.529052277E0,7.799680481E0,9.641394149E0
2.108090000E-1,-1.154399414E0,5.358706512E0,7.508236542E0,9.296342800E0
2.207670000E-1,-8.581654358E-1,4.932991791E0,7.633975067E0,9.129536201E0
2.307260000E-1,-4.394860840E-1,4.549938354E0,8.014633484E0,9.226561490E0
2.406840000E-1,3.278182983E-2,4.502936096E0,8.456664276E0,9.580849587E0
2.506430000E-1,4.370910645E-1,4.691693573E0,8.646170197E0,9.846791165E0
2.606010000E-1,5.995033264E-1,4.793032837E0,8.815168762E0,1.005185397E1
2.705600000E-1,4.147874451E-1,4.721182251E0,8.805438995E0,9.999868318E0
2.805180000E-1,-1.499880981E-1,4.651876373E0,8.746910706E0,9.908122785E0
2.904770000E-1,-6.379733276E-1,4.609963531E0,8.877888336E0,1.002375554E1
3.004350000E-1,-1.191073151E0,5.344635773E0,9.125772858E0,1.064253339E1
3.103940000E-1,-1.873653717E0,6.846612396E0,8.515342255E0,1.108592501E1
3.203520000E-1,-2.232307892E0,8.338260498E0,7.701784058E0,1.156837345E1
3.303100000E-1,-3.260519714E0,9.020242310E0,7.059918823E0,1.190958496E1
3.402690000E-1,-4.665198669E0,8.776249695E0,6.117778015E0,1.167106872E1
3.502270000E-1,-5.805826721E0,8.431965637E0,3.961062927E0,1.097705279E1
3.601860000E-1,-6.863377533E0,9.462722168E0,5.561385040E0,1.294519469E1
3.701440000E-1,-5.461991730E0,1.128832581E1,3.799249420E0,1.310320378E1
3.801030000E-1,-4.967869263E0,1.115600098E1,2.929408264E0,1.255856344E1
3.900610000E-1,-5.086722107E0,1.027987289E1,3.251688080E0,1.192157724E1
4.000200000E-1,-4.580175476E0,1.040351578E1,4.010460205E0,1.205383503E1
4.099780000E-1,-3.584595795E0,1.074315948E1,4.910688171E0,1.234421569E1
4.199370000E-1,-3.730691986E0,9.920769653E0,6.484216003E0,1.242516762E1
4.298950000E-1,-3.386856995E0,9.584419098E0,7.874524841E0,1.285846146E1
4.398540000E-1,-2.069895630E0,1.010338989E1,9.050030365E0,1.372100597E1
4.498120000E-1,4.011657715E-2,1.059436890E1,9.498647461E0,1.422907464E1
4.597710000E-1,2.032174072E0,1.100556381E1,9.729617157E0,1.482961956E1
4.697290000E-1,2.563269653E0,1.139161102E1,1.020936951E1,1.551033135E1
4.796880000E-1,1.849853210E0,1.127889542E1,1.070648575E1,1.566091555E1
4.896460000E-1,1.083596649E0,1.122695343E1,1.052850586E1,1.542945562E1
4.996050000E-1,8.343649292E-1,1.152273834E1,9.598190460E0,1.501981770E1
5.095630000E-1,1.117575989E0,1.184217407E1,8.602311401E0,1.467943542E1
5.195220000E-1,1.277443542E0,1.152513336E1,7.905211029E0,1.403399168E1
5.294800000E-1,1.107995911E0,1.095841187E1,7.483088837E0,1.331582007E1
5.394390000E-1,8.508306885E-1,1.083087708E1,6.992259521E0,1.291988794E1
5.493970000E-1,7.911048889E-1,1.075977493E1,6.771768036E0,1.273795297E1
5.593560000E-1,1.104852448E0,1.058029816E1,6.601721649E0,1.251982974E1
5.693140000E-1,1.533710632E0,1.045006897E1,6.455026703E0,1.237835124E1
5.792720000E-1,1.944905548E0,1.033540741E1,6.305787048E0,1.226239186E1
5.892310000E-1,2.604434052E0,1.007390121E1,5.864953766E0,1.194421387E1
5.991890000E-1,3.281326447E0,9.829160156E0,5.212310944E0,1.159946887E1
6.091480000E-1,3.523522797E0,9.605076141E0,4.667743378E0,1.124546703E1
6.191060000E-1,3.284170532E0,9.372310181E0,4.374353485E0,1.085177140E1
6.290650000E-1,2.590662689E0,9.164691925E0,4.465513916E0,1.051874164E1
6.390230000E-1,2.152074738E0,9.120833130E0,4.557572479E0,1.042077202E1
6.489820000E-1,2.319127350E0,9.172775116E0,4.582420807E0,1.051269401E1
6.589400000E-1,2.895877991E0,9.163793793E0,4.496349792E0,1.061029630E1
6.688990000E-1,3.556005249E0,9.258546753E0,4.284989319E0,1.080402678E1
6.788570000E-1,3.961362305E0,9.387728119E0,4.079167328E0,1.097549255E1
6.888160000E-1,3.890559540E0,9.464518433E0,4.115541687E0,1.102956237E1
6.987740000E-1,3.684887238E0,9.405990143E0,4.217479706E0,1.094706260E1
7.087330000E-1,3.556903381E0,9.244176636E0,4.241429901E0,1.077478960E1
7.186910000E-1,3.637884979E0,9.004974060E0,3.924389191E0,1.047495086E1
7.286500000E-1,3.985911255E0,8.813821564E0,3.379671936E0,1.024661512E1
7.386080000E-1,4.408931580E0,8.761430511E0,2.813100128E0,1.020366966E1
7.485670000E-1,4.765340424E0,8.877139893E0,2.304457855E0,1.033550231E1
7.585250000E-1,4.860243073E0,9.029223633E0,2.092498627E0,1.046553356E1
7.684840000E-1,4.517904968E0,9.072783051E0,2.188149719E0,1.036893711E1
7.784420000E-1,4.156257019E0,8.906778259E0,2.383643188E0,1.011369993E1
7.884010000E-1,4.109105072E0,8.607849884E0,2.465522919E0,9.851833707E0
7.983590000E-1,4.466262360E0,8.265212402E0,2.337089996E0,9.681075621E0
8.083180000E-1,4.723277893E0,8.099506989E0,2.080373840E0,9.604130509E0
8.182760000E-1,4.786296844E0,8.101003876E0,1.860481110E0,9.591469712E0
8.282340000E-1,4.546794891E0,8.050858154E0,1.820065155E0,9.423497120E0
8.381930000E-1,4.058959351E0,7.817194061E0,1.973945160E0,9.026634672E0
8.481510000E-1,3.472329254E0,7.383545837E0,2.119741974E0,8.430132005E0
8.581100000E-1,2.959346008E0,6.949897614E0,2.075583801E0,7.833699876E0
8.680678333E-1,2.683619385E0,6.569837952E0,1.785786438E0,7.318033678E0
8.780268334E-1,2.579286346E0,6.358776855E0,1.357826385E0,6.995030640E0
8.879848333E-1,2.498454437E0,6.273454285E0,9.380992126E-1,6.817516657E0
8.979438333E-1,2.391127625E0,6.149961090E0,6.382727051E-1,6.629246169E0
9.079018334E-1,2.169438629E0,5.938600616E0,4.034111023E-1,6.335312286E0
9.178608333E-1,1.834435272E0,5.726940765E0,1.704954529E-1,6.015984707E0
9.278188333E-1,1.479822693E0,5.385949860E0,9.654922485E-2,5.586381015E0
9.377778333E-1,1.285526733E0,5.024601288E0,1.721420288E-1,5.189299564E0
9.477358334E-1,1.270557861E0,4.846322021E0,3.047662354E-1,5.019366182E0
9.576948333E-1,1.362317047E0,4.830155640E0,3.555107117E-1,5.031172737E0
9.676528333E-1,1.377285919E0,4.890480194E0,4.848417664E-1,5.103800992E0
9.776118333E-1,1.207089844E0,4.884342957E0,6.129753113E-1,5.068491959E0
9.875698333E-1,8.913963318E-1,4.799319763E0,6.900650024E-1,4.929933805E0
9.975288333E-1,5.899232483E-1,4.773872681E0,6.526428223E-1,4.854257148E0
1.007486833E0,3.314108276E-1,4.783003693E0,4.679269409E-1,4.817251611E0
1.017445833E0,2.077679443E-1,4.830155640E0,1.877096558E-1,4.838264765E0
1.027403833E0,2.454895020E-1,4.909191284E0,-1.649569702E-1,4.918092614E0
1.037362833E0,2.942880249E-1,4.975353699E0,-4.463717651E-1,5.003998164E0
1.047320833E0,2.818638611E-1,5.039121094E0,-6.563850403E-1,5.089501936E0
1.057279833E0,-2.694396973E-3,5.104684753E0,-8.321195984E-1,5.172063101E0
1.067237833E0,-5.857319641E-1,5.148094482E0,-9.704319763E-1,5.271403699E0
1.077196833E0,-9.874964905E-1,5.160069580E0,-1.014739838E0,5.350809689E0
1.087154833E0,-1.129850464E0,5.284909973E0,-1.208736420E0,5.537858722E0
1.097112833E0,-1.167572021E0,5.681435394E0,-1.320703583E0,5.948629297E0
1.107071833E0,-1.086740112E0,6.152805176E0,-1.294657745E0,6.380764396E0
1.117029833E0,-8.656498718E-1,6.479276276E0,-1.200054474E0,6.646089188E0
1.126988833E0,-6.191125488E-1,6.617888031E0,-1.052611084E0,6.729616069E0
1.136946833E0,-3.594026184E-1,6.585255890E0,-8.985813904E-1,6.655990827E0
1.146905833E0,-1.892065430E-1,6.346203003E0,-7.872129822E-1,6.397639873E0
1.156863833E0,-1.701960754E-1,6.018534393E0,-8.274792480E-1,6.077536084E0
1.166822833E0,-2.996768188E-1,5.938600616E0,-9.849517822E-1,6.027181223E0
1.176780833E0,-4.480183411E-1,6.040239258E0,-1.140478363E0,6.163270367E0
1.186739833E0,-7.936495972E-1,6.029461670E0,-1.335373077E0,6.226355994E0
1.196697833E0,-1.419797516E0,6.027515717E0,-1.375789032E0,6.343466415E0
1.206656833E0,-1.996398468E0,6.065386963E0,-1.305884399E0,6.517657548E0
1.216614833E0,-2.304607544E0,5.991740112E0,-1.206191711E0,6.532003058E0
1.226573833E0,-2.368674316E0,5.896388397E0,-1.172212372E0,6.461586182E0
1.236531833E0,-2.300266571E0,5.835465088E0,-1.257085876E0,6.397198136E0
1.246490833E0,-2.340682526E0,5.930517426E0,-1.512454834E0,6.552659860E0
1.256448833E0,-2.359543304E0,6.128256226E0,-1.748663635E0,6.795645185E0
1.266407833E0,-2.354004822E0,6.377487946E0,-1.906585236E0,7.060365320E0
1.276365833E0,-2.431543579E0,6.608607330E0,-1.902992706E0,7.294345499E0
1.286324833E0,-2.553988953E0,6.744524689E0,-1.689536591E0,7.407159154E0
1.296282833E0,-2.616259460E0,6.843917999E0,-1.150507507E0,7.416717243E0
1.306241833E0,-2.518812103E0,6.790179749E0,-4.257147217E-1,7.254804508E0
1.316199833E0,-2.470612335E0,6.597829742E0,2.279759216E-1,7.048918757E0
1.326158833E0,-2.952610016E0,6.627019043E0,5.743556213E-1,7.277717477E0
1.336116833E0,-3.946692810E0,6.967111816E0,7.152127075E-1,8.039189040E0
1.346075833E0,-4.971012726E0,7.461833038E0,1.051712952E0,9.027514605E0
1.356033833E0,-5.956862640E0,7.797435150E0,1.561253357E0,9.935880408E0
1.365991833E0,-6.860234070E0,8.083190918E0,1.997745667E0,1.078850197E1
1.375950833E0,-7.433541870E0,8.826096039E0,2.370320892E0,1.178031991E1
1.385908833E0,-7.040159912E0,9.711055756E0,2.600242767E0,1.227312992E1
1.395867833E0,-6.012247467E0,1.008812164E1,2.559078369E0,1.201940930E1
1.405825833E0,-4.703219604E0,1.001507355E1,2.265389099E0,1.129397895E1
1.415784833E0,-3.403771820E0,9.782606964E0,2.147434387E0,1.057811590E1
1.425742833E0,-3.027005310E0,9.790390778E0,2.549498291E0,1.056004045E1
1.435701833E0,-3.740870819E0,1.043285477E1,3.636687469E0,1.166465039E1
1.445659833E0,-4.986131287E0,1.128727798E1,4.836442566E0,1.325350241E1
1.455618833E0,-6.134992218E0,1.209948898E1,5.901477814E0,1.479402594E1
1.465576833E0,-6.525380402E0,1.251307892E1,6.704857178E0,1.562411096E1
1.475535833E0,-6.143674164E0,1.259271332E1,7.171436920E0,1.574009747E1
1.485493833E0,-5.535638580E0,1.253732849E1,7.278015289E0,1.551764823E1
1.495452833E0,-5.115462341E0,1.261621445E1,7.186405792E0,1.539419534E1
1.505410833E0,-5.101391602E0,1.288610321E1,7.112459564E0,1.557764210E1
1.515369833E0,-5.348976746E0,1.323203384E1,6.948400726E0,1.587383207E1
1.525327833E0,-5.115013275E0,1.341839630E1,6.911876678E0,1.593708754E1
1.535286833E0,-4.438420258E0,1.335956863E1,6.919510803E0,1.568621300E1
1.545244833E0,-3.727997589E0,1.325388840E1,6.935976563E0,1.541659153E1
1.555203833E0,-3.253783722E0,1.335792206E1,7.216044159E0,1.552715310E1
1.565161833E0,-2.980751495E0,1.346465012E1,7.772287445E0,1.583003899E1
1.575120833E0,-3.019221497E0,1.337872879E1,8.431217194E0,1.609942564E1
1.585078833E0,-2.921175385E0,1.318592972E1,8.848699036E0,1.614625290E1
1.595037833E0,-2.260149994E0,1.293280609E1,8.850644989E0,1.583349829E1
1.604995833E0,-1.100960541E0,1.288894730E1,8.625662842E0,1.554796244E1
1.614954833E0,1.064286804E-1,1.308578796E1,8.344547424E0,1.552033007E1
1.624912833E0,7.720944214E-1,1.343695770E1,8.176147614E0,1.574793167E1
1.634870833E0,7.943980408E-1,1.367870499E1,8.193361816E0,1.596462390E1
1.644829833E0,3.394940186E-1,1.356374405E1,8.284971313E0,1.589752051E1
1.654787833E0,-5.164260864E-1,1.318113968E1,8.397537231E0,1.563738375E1
1.664746833E0,-1.491348724E0,1.278581177E1,8.475824432E0,1.541235554E1
1.674704833E0,-1.949396210E0,1.261651382E1,8.305179291E0,1.522998916E1
1.684663833E0,-1.469793549E0,1.270183640E1,8.040379944E0,1.510445797E1
1.694621833E0,-6.430627441E-1,1.298489777E1,7.935448151E0,1.523129794E1
1.704580833E0,1.962419128E-1,1.321901093E1,8.105195160E0,1.550725473E1
1.714538833E0,5.571414185E-1,1.321002960E1,8.421637115E0,1.567607286E1
1.724497833E0,5.637277222E-1,1.293415329E1,8.715326385E0,1.560663398E1
1.734455833E0,3.017724609E-1,1.273177414E1,8.939709778E0,1.555980560E1
1.744414833E0,1.995350647E-1,1.262220200E1,8.826395416E0,1.540341045E1
1.754372833E0,5.562432861E-1,1.257340347E1,8.138575745E0,1.498787165E1
1.764331833E0,1.271605682E0,1.247281265E1,7.317682800E0,1.451676679E1
1.774289833E0,2.143841858E0,1.253747818E1,6.873107300E0,1.445766305E1
1.784248833E0,2.699037323E0,1.251098328E1,6.919361115E0,1.454946952E1
1.794206833E0,3.168910217E0,1.232806366E1,7.282805328E0,1.466500593E1
1.804165833E0,3.545527039E0,1.237940689E1,7.546856232E0,1.492566635E1
1.814123833E0,3.762575684E0,1.274404861E1,7.542964325E0,1.527953081E1
1.824082833E0,4.022884369E0,1.279748749E1,7.272327118E0,1.525929311E1
1.834040833E0,4.319717102E0,1.260079651E1,6.811136169E0,1.496100279E1
1.843999833E0,4.685706024E0,1.247760269E1,6.091133423E0,1.465429344E1
1.853957833E0,5.135969696E0,1.251472549E1,5.416336670E0,1.457165886E1
1.863917458E0,5.402864685E0,1.242102036E1,5.170248413E0,1.449841930E1
1.873875458E0,5.487438812E0,1.216445389E1,5.177882538E0,1.431420241E1
1.883834458E0,5.474565582E0,1.179322586E1,5.262007599E0,1.402639542E1
1.893792458E0,5.336103516E0,1.140029297E1,5.244194641E0,1.363606461E1
1.903750458E0,5.463338928E0,1.115001343E1,4.802163849E0,1.331283776E1
1.913709458E0,5.838458862E0,1.093550949E1,4.167783051E0,1.307835560E1
1.923667458E0,6.012846222E0,1.071666458E1,3.597319336E0,1.280398086E1
1.933626458E0,5.568570099E0,1.032732422E1,3.225342865E0,1.216821413E1
1.943584458E0,4.699028320E0,9.814340973E0,3.000211029E0,1.128731244E1
1.953543458E0,4.141288147E0,9.263935547E0,2.634970551E0,1.048398012E1
1.963501458E0,4.184099121E0,8.851393433E0,1.928888855E0,9.978700485E0
1.973460458E0,4.513114929E0,8.821156311E0,1.217717743E0,9.983177927E0
1.983418458E0,5.103187866E0,9.061556396E0,8.286767578E-1,1.043269073E1
1.993377458E0,5.355413361E0,9.266929321E0,8.858578491E-1,1.073970090E1
2.003335458E0,5.061125336E0,9.262588348E0,1.289718018E0,1.063362145E1
2.013294458E0,4.544250183E0,9.040749664E0,1.733844452E0,1.026604017E1
2.023252458E0,4.127965851E0,8.722810822E0,1.939816132E0,9.843293012E0
2.033211458E0,3.962859192E0,8.404273224E0,2.008074188E0,9.506230764E0
2.043169458E0,4.242926788E0,8.075107727E0,1.875150604E0,9.312678579E0
2.053128458E0,4.624633026E0,7.884404297E0,1.911524963E0,9.338361175E0
2.063086458E0,4.734055481E0,7.711214447E0,2.118993530E0,9.293236418E0
2.073045458E0,4.454886017E0,7.364535370E0,2.364632721E0,8.926022549E0
2.083003458E0,4.082011414E0,6.980733490E0,2.486179962E0,8.460174232E0
2.092962458E0,3.820505219E0,6.687493286E0,2.288590851E0,8.034704392E0
2.102920458E0,3.729494476E0,6.563850403E0,1.706750793E0,7.739913399E0
2.112879458E0,3.783831482E0,6.491251373E0,1.089284821E0,7.592118709E0
2.122837458E0,3.881578217E0,6.351442108E0,6.280938721E-1,7.470071500E0
2.132796458E0,3.824546814E0,6.135291595E0,2.353106689E-1,7.233556000E0
2.142754458E0,3.651656342E0,5.913901978E0,-1.752854919E-1,6.952665362E0
2.152713458E0,3.604205017E0,5.742957458E0,-5.652246094E-1,6.803773441E0
2.162671458E0,3.787124634E0,5.463638306E0,-7.593708801E-1,6.691061251E0
2.172630458E0,4.040847015E0,5.138813782E0,-7.429051208E-1,6.579343410E0
2.182588458E0,4.231849823E0,5.073848877E0,-7.849676514E-1,6.653470490E0
2.192546458E0,3.968397675E0,5.108426971E0,-8.087681580E-1,6.519072952E0
2.202505458E0,3.307671661E0,5.107528839E0,-8.321195984E-1,6.141658220E0
2.212463458E0,2.595153351E0,5.050647125E0,-8.249345398E-1,5.737976498E0
2.222422458E0,1.881886597E0,4.865332489E0,-7.385641479E-1,5.268627373E0
2.232380458E0,1.348695374E0,4.728816376E0,-7.647596741E-1,4.976498858E0
2.242339458E0,1.240620117E0,4.755460968E0,-1.015338593E0,5.018412075E0
2.252297458E0,1.363963623E0,4.799319763E0,-1.285676422E0,5.152361674E0
2.262256458E0,1.646875305E0,4.909640350E0,-1.421444092E0,5.370034446E0
2.272214458E0,1.856589203E0,5.083878021E0,-1.540746002E0,5.627311742E0
2.282173458E0,1.686991882E0,5.272635498E0,-1.600771179E0,5.762733299E0
2.292131458E0,1.491199036E0,5.446424103E0,-1.581161957E0,5.864067121E0
2.302090458E0,1.389560394E0,5.512586517E0,-1.471290436E0,5.872323539E0
2.312048458E0,1.322649536E0,5.491630096E0,-1.338366852E0,5.805052002E0
2.322007458E0,1.240021362E0,5.439388733E0,-1.184037781E0,5.703205084E0
2.331965458E0,1.001118164E0,5.538931732E0,-1.129551086E0,5.740896095E0
2.341924458E0,7.673043823E-1,5.807473297E0,-1.200802917E0,5.979751647E0
2.351882458E0,7.388635254E-1,6.115532684E0,-1.360820160E0,6.308525250E0
2.361841458E0,7.664062500E-1,6.248456268E0,-1.546434174E0,6.482441124E0
2.371799458E0,6.927593994E-1,6.138135681E0,-1.596879272E0,6.380176223E0
2.381758458E0,5.981561279E-1,6.011499023E0,-1.679058380E0,6.270179288E0
2.391716458E0,4.948709106E-1,6.008654938E0,-1.881437531E0,6.315745289E0
2.401675458E0,1.624122620E-1,6.199657745E0,-2.169139252E0,6.570182569E0
2.411633458E0,-3.341052246E-1,6.430477753E0,-2.342628479E0,6.852049228E0
2.421591458E0,-6.683601379E-1,6.586154022E0,-2.225871277E0,6.984170174E0
2.431550458E0,-7.457492065E-1,6.618786163E0,-1.910626831E0,6.929283299E0
2.441508458E0,-7.096742249E-1,6.471193085E0,-1.543889465E0,6.690558432E0
2.451467458E0,-5.487588501E-1,6.461613007E0,-1.481319580E0,6.651908495E0
2.461425458E0,-4.971162415E-1,6.748266907E0,-1.701811066E0,6.977276812E0
2.471384458E0,-6.111790466E-1,6.979086914E0,-1.690734100E0,7.206925543E0
2.481342458E0,-6.478527832E-1,6.944359131E0,-1.346899109E0,7.103377660E0
2.491301458E0,-8.223898315E-1,6.643484802E0,-9.262738037E-1,6.757972959E0
2.501259458E0,-1.147214355E0,6.447542267E0,-7.512876892E-1,6.591762682E0
2.511218458E0,-1.519190826E0,6.542893982E0,-9.565109253E-1,6.784711901E0
2.521176458E0,-1.697769470E0,6.833589478E0,-1.233734436E0,7.148598952E0
2.531135458E0,-1.656754761E0,7.125033417E0,-1.303489380E0,7.430344682E0
2.541093458E0,-1.481319580E0,7.277416534E0,-1.193468170E0,7.521932291E0
2.551052458E0,-1.225950623E0,7.399412842E0,-8.774752808E-1,7.551438817E0
2.561010458E0,-9.551637268E-1,7.546407166E0,-6.532415771E-1,7.634613508E0
2.570969458E0,-8.424481201E-1,7.596103821E0,-5.394781494E-1,7.661693596E0
2.580927458E0,-1.031654663E0,7.484885101E0,-3.483256531E-1,7.563672857E0
2.590886458E0,-1.485959930E0,7.471413116E0,-2.875520325E-1,7.623173686E0
2.600844458E0,-2.324216766E0,7.602390747E0,-2.689906311E-1,7.954287184E0
2.610803458E0,-3.006797333E0,7.815248108E0,-2.062710571E-1,8.376245038E0
2.620761458E0,-3.505111084E0,8.151748352E0,-1.850152588E-1,8.875304815E0
2.630720458E0,-3.830534363E0,8.454119568E0,-1.880090332E-1,9.283344148E0
2.640678458E0,-3.803740082E0,8.573870544E0,-1.737886047E-1,9.381359027E0
2.650637458E0,-3.291505280E0,8.458759918E0,-1.773811340E-1,9.078330817E0
2.660595458E0,-2.500999146E0,8.147257690E0,-7.783813477E-2,8.522843620E0
2.670554458E0,-2.086511078E0,7.702831879E0,-8.352630615E-2,7.980859858E0
2.680512458E0,-2.296075287E0,7.277566223E0,-2.851570129E-1,7.636507472E0
2.690470458E0,-3.097658386E0,7.258106689E0,-7.475454712E-1,7.926816790E0
2.700429458E0,-4.377496948E0,7.526049500E0,-1.251397705E0,8.796015963E0
2.710387458E0,-5.665119324E0,7.754324799E0,-1.568887482E0,9.730598027E0
2.720346458E0,-6.502478027E0,7.868387604E0,-1.558858337E0,1.032587930E1
2.730304458E0,-6.609206085E0,7.860154724E0,-1.207389221E0,1.034028172E1
2.740263458E0,-6.059549103E0,7.768994293E0,-6.780899048E-1,9.875991777E0
2.750221458E0,-5.057233429E0,7.686515808E0,-2.649490356E-1,9.204799466E0
2.760180458E0,-4.157454529E0,7.668852539E0,-1.664538574E-1,8.724874458E0
2.770138458E0,-4.004023590E0,8.005652161E0,-2.785707092E-1,8.955460517E0
2.780097458E0,-4.589605865E0,8.605903931E0,-3.924838257E-1,9.761153007E0
2.790055458E0,-5.656138000E0,9.150321808E0,-2.031275940E-1,1.075925402E1
2.800014458E0,-6.592291260E0,9.442065125E0,3.893403625E-1,1.152226036E1
2.809972458E0,-6.598877563E0,9.432035980E0,1.423689423E0,1.159893872E1
2.819931458E0,-6.123915253E0,9.092991028E0,2.486030273E0,1.124122637E1
2.829889458E0,-5.594166870E0,8.834927673E0,2.990780640E0,1.087636974E1
2.839848458E0,-5.223088531E0,9.091793518E0,2.795287170E0,1.085149730E1
2.849806458E0,-4.888234863E0,9.608518982E0,2.471211090E0,1.106007963E1
2.859765458E0,-4.638404388E0,1.006926086E1,2.387684784E0,1.134045185E1
2.869723250E0,-4.534071350E0,1.055170761E1,2.696492615E0,1.179692371E1
2.879682250E0,-4.600682831E0,1.092997101E1,3.436403961E0,1.234663602E1
2.889640250E0,-4.697082367E0,1.128473328E1,4.412673798E0,1.299536371E1
2.899599250E0,-4.436623993E0,1.176358749E1,5.309608612E0,1.364762129E1
2.909557250E0,-3.888912964E0,1.240889557E1,6.039490814E0,1.433805365E1
2.919516250E0,-3.717070312E0,1.318428314E1,6.789281616E0,1.528843611E1
2.929474250E0,-4.256847839E0,1.379142059E1,7.622898102E0,1.632276358E1
2.939433250E0,-5.081483002E0,1.408750488E1,8.469537506E0,1.720500883E1
2.949391250E0,-5.379662933E0,1.432326462E1,9.073681183E0,1.778843368E1
2.959349250E0,-4.716242523E0,1.461994766E1,9.201066284E0,1.790657516E1
2.969308250E0,-3.150648193E0,1.512514709E1,8.930578766E0,1.784522053E1
2.979266250E0,-1.296154633E0,1.595487167E1,8.426726532E0,1.808998803E1
2.989225250E0,4.471202087E-1,1.688189392E1,8.036637726E0,1.870256145E1
2.999183250E0,1.569336548E0,1.740595413E1,8.126151581E0,1.927341163E1
3.009142250E0,1.650767212E0,1.743693970E1,8.894354095E0,1.964386503E1
3.019100250E0,5.998027039E-1,1.699071762E1,9.959988098E0,1.970394913E1
3.029059250E0,-1.056952057E0,1.636382126E1,1.095152618E1,1.971871496E1
3.039017250E0,-1.948498077E0,1.589634338E1,1.144894180E1,1.968676322E1
3.048976250E0,-1.586251373E0,1.550655396E1,1.116857483E1,1.917567398E1
3.058934250E0,-7.520361328E-1,1.504341705E1,1.049856812E1,1.836000783E1
3.068893250E0,3.412902832E-2,1.444645844E1,9.834848328E0,1.747642892E1
3.078851250E0,3.195854187E-1,1.375684250E1,9.526190186E0,1.673622269E1
3.088810250E0,5.149291992E-1,1.322125626E1,9.514364777E0,1.629692935E1
3.098768250E0,1.173559570E0,1.290391617E1,9.195827179E0,1.588872342E1
3.108727250E0,2.169288940E0,1.271201523E1,8.593928833E0,1.549699192E1
3.118685250E0,3.009641418E0,1.264226028E1,7.931556244E0,1.522479133E1
3.128644250E0,3.206482086E0,1.266920425E1,7.640860748E0,1.513846151E1
3.138602250E0,2.850222931E0,1.278087204E1,7.942633209E0,1.531534796E1
3.148561250E0,2.466271362E0,1.282922150E1,8.295150146E0,1.547517155E1
3.158519250E0,2.282004547E0,1.281889297E1,8.281827850E0,1.543114495E1
3.168478250E0,2.459834747E0,1.281574951E1,8.154293060E0,1.538787568E1
3.178436250E0,2.941233673E0,1.260229340E1,8.075107727E0,1.525372149E1
3.188395250E0,3.217109985E0,1.222058716E1,8.066874847E0,1.499223189E1
3.198353250E0,3.167413330E0,1.194096863E1,8.158334656E0,1.480465006E1
3.208312250E0,2.982398071E0,1.185699326E1,8.063581696E0,1.464596658E1
3.218270250E0,2.939138031E0,1.185010757E1,7.908504181E0,1.454675291E1
3.228228250E0,3.342549133E0,1.166479294E1,7.516768799E0,1.427381666E1
3.238187250E0,4.010759583E0,1.142244690E1,6.934180298E0,1.395139212E1
3.248145250E0,5.008883972E0,1.119087845E1,6.190227356E0,1.373475860E1
3.258104250E0,6.047424316E0,1.086874832E1,5.401517487E0,1.356014093E1
3.268062250E0,6.775659943E0,1.048943710E1,4.933590546E0,1.342677080E1
3.278021250E0,6.758146362E0,1.024245071E1,4.923262024E0,1.322190787E1
3.287979250E0,6.223458252E0,9.887538757E0,5.095104675E0,1.274578154E1
3.297938250E0,5.719606018E0,9.387578430E0,4.906047821E0,1.203784977E1
3.307896250E0,5.654192047E0,9.025182037E0,4.205205231E0,1.145022050E1
3.317855250E0,6.115981750E0,8.821605377E0,3.207080841E0,1.120318355E1
3.327813250E0,6.350094910E0,8.629704437E0,2.517764282E0,1.100611834E1
3.337772250E0,6.005212097E0,8.436905365E0,2.286495209E0,1.060528193E1
3.347730250E0,5.173391876E0,8.053253174E0,2.452649689E0,9.881010104E0
3.357689250E0,4.212240601E0,7.568411407E0,2.750679932E0,9.087907471E0
3.367647250E0,3.604055328E0,7.307204590E0,2.810256042E0,8.618700178E0
3.377606250E0,3.544030151E0,7.159162445E0,2.598596191E0,8.400384443E0
3.387564250E0,3.988156586E0,6.999743958E0,2.135758667E0,8.334463000E0
3.397523250E0,4.530478821E0,6.756050720E0,1.624571686E0,8.295100532E0
3.407481250E0,4.868925018E0,6.454128571E0,1.176703033E0,8.169873712E0
3.417440250E0,4.833149414E0,6.133345642E0,7.852670288E-1,7.848178536E0
3.427398250E0,4.516108704E0,5.908513184E0,5.194198608E-1,7.454901935E0
3.437357250E0,3.875440979E0,5.700445862E0,4.287084961E-1,6.906367843E0
3.447315250E0,3.260968781E0,5.552703094E0,4.562512207E-1,6.455586280E0
3.457274250E0,3.005749512E0,5.605992279E0,4.589456177E-1,6.377484664E0
3.467232250E0,3.079396362E0,5.725743256E0,4.474195862E-1,6.516671088E0
3.477190250E0,3.587439880E0,5.800288239E0,4.038601685E-1,6.831996164E0
3.487149250E0,4.170477448E0,5.870043182E0,3.079096985E-1,7.207294741E0
3.497108250E0,4.192631378E0,5.889353027E0,3.065625000E-1,7.235787277E0
3.507066250E0,3.895199890E0,5.929020538E0,3.189866638E-1,7.101240682E0
3.517024250E0,3.470083923E0,5.919440460E0,2.592608643E-1,6.866474641E0
3.526983250E0,3.029999084E0,5.832770691E0,2.330653381E-1,6.576961900E0
3.536941250E0,2.853665771E0,5.847739563E0,1.987866211E-1,6.509914166E0
3.546900250E0,2.968327332E0,5.887107697E0,1.185534668E-1,6.594168568E0
3.556858250E0,3.151995392E0,5.908513184E0,2.365081787E-2,6.696727735E0
3.566817250E0,3.140169983E0,5.883964233E0,-1.140628052E-1,6.670435739E0
3.576775250E0,2.891686707E0,5.810916138E0,-2.257305908E-1,6.494578714E0
3.586734250E0,2.415377197E0,5.667664032E0,-3.356021118E-1,6.170015507E0
3.596692250E0,1.918260956E0,5.449417877E0,-5.785469055E-1,5.806082743E0
3.606651250E0,1.487307129E0,5.262157288E0,-9.126521301E-1,5.543944059E0
3.616609250E0,1.272803192E0,5.284760284E0,-1.306782532E0,5.590742331E0
3.626568250E0,1.256487122E0,5.440286865E0,-1.641636200E0,5.819832513E0
3.636526250E0,1.278641052E0,5.584736481E0,-1.708846436E0,5.978658766E0
3.646485250E0,1.354533234E0,5.606890411E0,-1.522933044E0,5.965844904E0
3.656443250E0,1.364562378E0,5.501509552E0,-1.227297821E0,5.799560136E0
3.666402250E0,1.337768097E0,5.403762817E0,-1.040785675E0,5.663348028E0
3.676360250E0,1.375489655E0,5.210963745E0,-1.114133148E0,5.503399642E0
3.686319250E0,1.326691132E0,5.133275299E0,-1.414558411E0,5.487403772E0
3.696277250E0,1.045875092E0,5.291346588E0,-1.638642426E0,5.637140447E0
3.706236250E0,6.060896301E-1,5.464985504E0,-1.693129120E0,5.753268412E0
3.716194250E0,1.499880981E-1,5.564678192E0,-1.608255615E0,5.794361564E0
3.726153250E0,-2.558180237E-1,5.530698853E0,-1.378333740E0,5.705600456E0
3.736111250E0,-4.857398987E-1,5.433850250E0,-1.135089569E0,5.572351400E0
3.746070250E0,-5.755531311E-1,5.201832733E0,-7.905061340E-1,5.292941067E0
3.756028250E0,-5.414241028E-1,4.934788055E0,-4.245172119E-1,4.982518246E0
3.765986250E0,-4.418811035E-1,4.900808716E0,-3.475772095E-1,4.932949918E0
3.775945250E0,-4.008663940E-1,5.197042694E0,-6.831793213E-1,5.257060073E0
3.785903250E0,-5.264552307E-1,5.554199982E0,-9.571096802E-1,5.660596390E0
3.795862250E0,-7.613168335E-1,5.808820496E0,-9.610015869E-1,5.936793993E0
3.805820250E0,-1.345102844E0,5.839806061E0,-6.962022400E-1,6.033020309E0
3.815779250E0,-2.043999481E0,5.635181580E0,-2.808160400E-1,6.001005163E0
3.825737250E0,-2.494861908E0,5.355712738E0,2.213896179E-1,5.912445199E0
3.835696250E0,-2.803370361E0,5.121150513E0,5.544470215E-1,5.864510163E0
3.845654250E0,-2.879112854E0,5.190456390E0,4.287084961E-1,5.950959531E0
3.855613250E0,-2.847977600E0,5.628146210E0,-1.005908203E-1,6.308496230E0
3.865571583E0,-2.913092194E0,6.178551636E0,-5.530998230E-1,6.853212813E0
3.875530583E0,-3.124602356E0,6.409970398E0,-6.824308777E-1,7.163558633E0
3.885488583E0,-3.416495361E0,6.209537201E0,-4.884342957E-1,7.104179113E0
3.895447583E0,-3.836671600E0,5.775290222E0,-1.951940918E-1,6.936290569E0
3.905405583E0,-4.271816711E0,5.502557373E0,4.700225830E-2,6.966259030E0
3.915364583E0,-4.734953613E0,5.665269012E0,5.508544922E-2,7.383636848E0
3.925322583E0,-4.888085175E0,6.111790466E0,-1.344204712E-1,7.827223533E0
3.935281583E0,-4.890031128E0,6.558162231E0,-5.837860107E-2,8.180788736E0
3.945239583E0,-4.922812958E0,6.885381775E0,4.331991577E-1,8.475271743E0
3.955198583E0,-4.879253540E0,7.045848083E0,1.123862915E0,8.643735198E0
3.965156583E0,-4.827012177E0,7.088359680E0,1.865121460E0,8.776307171E0
3.975115583E0,-4.923112335E0,7.335346069E0,2.173779602E0,9.097782960E0
3.985073583E0,-5.191055145E0,7.969277802E0,1.891915741E0,9.697205132E0
3.995032583E0,-5.796246643E0,8.582103424E0,1.487007751E0,1.046232127E1
4.004990583E0,-6.598727875E0,9.124725037E0,1.408121796E0,1.134841943E1
4.014949583E0,-7.238198090E0,9.546697540E0,2.103575592E0,1.216371554E1
4.024907583E0,-7.496560822E0,9.506880341E0,3.358416138E0,1.256416161E1
4.034865583E0,-7.708969116E0,9.084758148E0,4.427193604E0,1.271066791E1
4.044824583E0,-7.844287720E0,8.930878143E0,4.976700897E0,1.288646523E1
4.054782583E0,-7.410938873E0,9.025182037E0,4.680466919E0,1.258104512E1
4.064741583E0,-6.882837067E0,9.476942596E0,3.836821289E0,1.232505922E1
4.074699583E0,-6.337820435E0,1.043899200E1,2.954855347E0,1.256470024E1
4.084658583E0,-6.033652954E0,1.116827545E1,2.355052643E0,1.291052352E1
4.094616583E0,-5.896837463E0,1.154294632E1,2.655477905E0,1.323117019E1
4.104575583E0,-5.633385315E0,1.144879211E1,3.645070038E0,1.327013212E1
4.114533583E0,-5.407804413E0,1.112232101E1,4.714595947E0,1.323547461E1
4.124492583E0,-5.707181854E0,1.119013000E1,5.254523163E0,1.361620167E1
4.134450583E0,-6.118676147E0,1.201072357E1,5.068460083E0,1.440086685E1
4.144409583E0,-6.207291870E0,1.279194901E1,4.865332489E0,1.502783723E1
4.154367583E0,-6.075865173E0,1.304028259E1,5.169499969E0,1.528688450E1
4.164326583E0,-5.783972168E0,1.298504745E1,5.890550537E0,1.538714974E1
4.174284583E0,-5.778733063E0,1.287113434E1,6.778354340E0,1.565266567E1
4.184243583E0,-5.815107422E0,1.317994217E1,7.353009338E0,1.617383987E1
4.194201583E0,-5.479654999E0,1.381028137E1,7.525750122E0,1.665495138E1
4.204160583E0,-5.143154755E0,1.436338120E1,7.942782898E0,1.720019071E1
4.214118583E0,-4.938679962E0,1.447145645E1,8.607849884E0,1.754732718E1
4.224077583E0,-4.928351440E0,1.417148026E1,9.305698700E0,1.765546739E1
4.234035583E0,-4.962630157E0,1.381088013E1,9.925410004E0,1.771671165E1
4.243994583E0,-4.406686249E0,1.359592712E1,1.002929398E1,1.746009323E1
4.253952583E0,-2.980751495E0,1.375025620E1,9.320667572E0,1.687688564E1
4.263911583E0,-1.240320740E0,1.416115173E1,8.455017700E0,1.653976839E1
4.273869583E0,1.299298096E-1,1.442505295E1,8.096513214E0,1.654244724E1
4.283827583E0,7.888595581E-1,1.440858719E1,8.186326447E0,1.659052817E1
4.293786583E0,8.732839966E-1,1.415097290E1,8.496481476E0,1.652884922E1
4.303744583E0,4.996609497E-1,1.373813141E1,8.786578217E0,1.631532630E1
4.313703583E0,-9.430389404E-3,1.356733658E1,8.846154327E0,1.619651682E1
4.323661583E0,2.442919922E-1,1.405457336E1,8.599617004E0,1.647859592E1
4.333620583E0,1.527872772E0,1.462862961E1,8.207282867E0,1.684312000E1
4.343578583E0,2.883753204E0,1.510748383E1,8.094716949E0,1.738034932E1
4.353537583E0,3.852089539E0,1.543395493E1,8.248746643E0,1.791891123E1
4.363495583E0,3.928730164E0,1.557047104E1,8.822503510E0,1.832241952E1
4.373454583E0,3.027304688E0,1.556433380E1,9.473200378E0,1.847037048E1
4.383412583E0,1.732347565E0,1.526271103E1,1.017539017E1,1.842525281E1
4.393371583E0,9.021739197E-1,1.493938339E1,1.067774551E1,1.838513919E1
4.403329583E0,8.936416626E-1,1.480047226E1,1.076261902E1,1.832175053E1
4.413288583E0,1.849104767E0,1.478325806E1,1.024843826E1,1.808298631E1
4.423246583E0,3.236868896E0,1.468895416E1,9.473948822E0,1.777634386E1
4.433205583E0,4.481680298E0,1.444795532E1,8.971743164E0,1.758752531E1
4.443163583E0,5.318290558E0,1.420920181E1,8.624016266E0,1.745162706E1
4.453122583E0,5.413193207E0,1.392075165E1,8.299640808E0,1.708724743E1
4.463080583E0,4.850363617E0,1.348590591E1,7.885452118E0,1.635775170E1
4.473039583E0,4.235292664E0,1.295211594E1,7.236252136E0,1.542913984E1
4.482997583E0,3.910468140E0,1.223750198E1,6.732998657E0,1.450453332E1
4.492956583E0,4.023782501E0,1.158650574E1,6.407126312E0,1.383796258E1
4.502914583E0,4.350702667E0,1.108370132E1,6.143823853E0,1.339864248E1
4.512873583E0,4.520299988E0,1.061682220E1,5.969137115E0,1.299155971E1
4.522831583E0,4.355043640E0,1.026580215E1,5.797144775E0,1.256821334E1
4.532790583E0,4.037853241E0,9.860145721E0,5.740412750E0,1.210285384E1
4.542748583E0,4.055217133E0,9.360484772E0,5.663023682E0,1.166761751E1
4.552707583E0,4.440066833E0,8.907227325E0,5.377567291E0,1.131243219E1
4.562665583E0,4.947212219E0,8.500523071E0,4.853357391E0,1.096762870E1
4.572624583E0,5.309458923E0,8.071814575E0,4.283941498E0,1.056866592E1
4.582582583E0,5.311554565E0,7.633975067E0,3.763773193E0,1.003275515E1
4.592540583E0,5.041665802E0,7.170838165E0,3.363655243E0,9.389009034E0
4.602499583E0,4.580025787E0,6.821015625E0,3.226390686E0,8.826805041E0
4.612457583E0,4.415817261E0,6.583010559E0,3.213667145E0,8.553544682E0
4.622416583E0,4.710554352E0,6.287225647E0,3.118016052E0,8.452251341E0
4.632374583E0,5.009033661E0,5.999823303E0,2.948119354E0,8.353424783E0
4.642333583E0,5.159620514E0,5.843398590E0,2.715652771E0,8.254802293E0
4.652291583E0,5.028792572E0,5.777535553E0,2.419269104E0,8.032529788E0
4.662250583E0,4.698878632E0,5.610482941E0,2.189646606E0,7.638817414E0
4.672208583E0,4.249812469E0,5.384153595E0,2.059267731E0,7.161745566E0
4.682167583E0,3.839515686E0,5.254523163E0,1.921254730E0,6.785507653E0
4.692125583E0,3.880380707E0,5.124443665E0,1.692979431E0,6.647063762E0
4.702084583E0,4.283791809E0,5.100194092E0,1.414109344E0,6.809005601E0
4.712042583E0,4.542753296E0,5.070705414E0,1.138233032E0,6.902480376E0
4.722001583E0,4.506079559E0,4.948260040E0,8.925938416E-1,6.751796367E0
4.731959583E0,4.230053558E0,4.757406921E0,5.670208740E-1,6.391227299E0
4.741918583E0,3.796704712E0,4.486919403E0,1.878593445E-1,5.880706040E0
4.751876583E0,3.479214935E0,4.198768616E0,-1.529818726E-1,5.455089175E0
4.761835583E0,3.296445007E0,4.032464447E0,-3.603007507E-1,5.220836699E0
4.771793583E0,3.166814575E0,4.070485382E0,-3.791615295E-1,5.171201917E0
4.781752583E0,3.034340057E0,4.330195312E0,-2.954855347E-1,5.295764603E0
4.791710583E0,2.962489471E0,4.604275360E0,-1.254391479E-1,5.476443229E0
4.801669583E0,2.875819702E0,4.741090851E0,2.245330811E-2,5.545158750E0
4.811627583E0,2.695744171E0,4.736001434E0,1.375639343E-1,5.451208128E0
4.821586583E0,2.450254669E0,4.696633301E0,1.215472412E-1,5.298762689E0
4.831544583E0,2.151925049E0,4.754413147E0,5.553451538E-2,5.219033423E0
4.841503583E0,1.877096558E0,4.935985565E0,-8.232879639E-3,5.280862881E0
4.851461583E0,1.667532349E0,5.144202576E0,-8.008346558E-2,5.408317450E0
4.861419583E0,1.528321838E0,5.282065887E0,-1.261875916E-1,5.500173724E0
4.871378583E0,1.357077942E0,5.352868652E0,-1.649569702E-1,5.524678647E0
4.881336583E0,1.160686340E0,5.400619354E0,-2.809657288E-1,5.531078008E0
4.891295583E0,8.704399109E-1,5.501808929E0,-4.812492371E-1,5.590989891E0
4.901253583E0,4.727169800E-1,5.506898346E0,-6.294410706E-1,5.562875767E0
4.911212583E0,9.744735718E-2,5.454806671E0,-5.755531311E-1,5.485952352E0
4.921170583E0,-6.376739502E-2,5.549709320E0,-5.138813782E-1,5.573815021E0
4.931129583E0,-1.077758789E-1,5.693410492E0,-5.090913391E-1,5.717142001E0
4.941087583E0,-1.088237000E-1,5.874384155E0,-6.375242615E-1,5.909878932E0
4.951046583E0,-1.866618347E-1,6.034850464E0,-7.818241882E-1,6.088145187E0
4.961004583E0,-4.444258118E-1,6.108946381E0,-7.271878052E-1,6.168106864E0
4.970963583E0,-6.306385803E-1,6.134992218E0,-5.093907166E-1,6.188320728E0
4.980921583E0,-7.328759766E-1,6.050567780E0,-3.695814514E-1,6.105986251E0
4.990880583E0,-8.406518555E-1,5.910758514E0,-2.914439392E-1,5.977349022E0
5.000838583E0,-9.933343506E-1,5.872737579E0,-3.805087280E-1,5.968295125E0
5.010797583E0,-1.090182953E0,6.007457428E0,-6.197113037E-1,6.136944331E0
5.020755583E0,-1.176253967E0,6.145769806E0,-9.018745422E-1,6.321980512E0
5.030714583E0,-1.453327789E0,6.297404480E0,-1.088835754E0,6.554008556E0
5.040672583E0,-1.964365082E0,6.337970123E0,-7.885601807E-1,6.682097172E0
5.050631583E0,-2.515369263E0,6.055208130E0,-1.619631958E-1,6.558876436E0
5.060589583E0,-2.701731720E0,5.806575165E0,3.646417236E-1,6.414720026E0
5.070548583E0,-2.594404907E0,5.792205048E0,3.930825806E-1,6.358859178E0
5.080506583E0,-2.412832489E0,6.010600891E0,-2.216889954E-1,6.480604116E0
5.090465583E0,-2.387235718E0,6.390810242E0,-8.393046570E-1,6.873556738E0
5.100423583E0,-2.562521210E0,6.527476044E0,-1.050515442E0,7.090701033E0
5.110382583E0,-2.906056824E0,6.293063507E0,-8.104147339E-1,6.978867144E0
5.120340583E0,-3.597319336E0,6.007307739E0,-5.689668274E-1,7.025110386E0
5.130298583E0,-4.318220215E0,5.902675323E0,-3.185375977E-1,7.320523752E0
5.140257583E0,-4.666994934E0,5.861211548E0,-2.540217590E-1,7.496610539E0
5.150215583E0,-4.672383728E0,5.920937347E0,-3.652404785E-1,7.551295874E0
5.160174583E0,-4.316124573E0,6.312972107E0,-5.321434021E-1,7.665880559E0
5.170132583E0,-3.949387207E0,6.829697571E0,-6.667135620E-1,7.917508143E0
5.180091583E0,-3.549868011E0,7.190896454E0,-4.713697815E-1,8.033227507E0
5.190049583E0,-3.174448700E0,7.500901794E0,-7.723937988E-2,8.145343345E0
5.200008583E0,-3.210074615E0,7.663014679E0,6.872209167E-1,8.336584768E0
5.209966583E0,-3.472179565E0,7.571105804E0,1.603315887E0,8.482234132E0
5.219925583E0,-3.890559540E0,7.551197205E0,2.157014465E0,8.764116850E0
5.229883583E0,-4.434977417E0,7.878716125E0,2.181114349E0,9.300561934E0
5.239842583E0,-5.018913116E0,8.365054779E0,2.080972595E0,9.974671788E0
5.249800583E0,-5.468278656E0,8.785829773E0,2.271376648E0,1.059490576E1
5.259759583E0,-5.668562164E0,9.088350677E0,2.722538452E0,1.105182929E1
5.269717583E0,-5.454507294E0,9.248667297E0,3.429218903E0,1.127160321E1
5.279676583E0,-4.814887390E0,9.207652588E0,4.101171570E0,1.117065866E1
5.289634583E0,-4.430935822E0,9.322164459E0,4.336182861E0,1.119546445E1
5.299593583E0,-4.440366211E0,9.762398987E0,4.264182587E0,1.154142709E1
5.309551583E0,-4.657265167E0,1.030202682E1,4.090094604E0,1.202292599E1
5.319510583E0,-4.968917084E0,1.062415695E1,4.303999786E0,1.249348879E1
5.329468583E0,-5.026547241E0,1.065065186E1,4.902604980E0,1.275688433E1
5.339427583E0,-4.910688171E0,1.043165726E1,5.682632904E0,1.285405182E1
5.349385583E0,-4.966971130E0,1.008752289E1,6.254443817E0,1.286650643E1
5.359344583E0,-5.283113708E0,9.923314362E0,6.319558411E0,1.289652189E1
5.369302583E0,-5.845344543E0,1.023930725E1,6.150410156E0,1.329808298E1
5.379261583E0,-6.144272919E0,1.097712296E1,6.073170776E0,1.396899142E1
5.389219583E0,-5.430108032E0,1.176119247E1,6.188730469E0,1.435660498E1
5.399178583E0,-4.108506317E0,1.215637070E1,6.693480835E0,1.447272809E1
5.409136583E0,-2.917732544E0,1.229363525E1,7.483388214E0,1.468494910E1
5.419095583E0,-2.458337860E0,1.223435852E1,8.231831818E0,1.494944844E1
5.429053583E0,-2.885549469E0,1.204096069E1,8.805139618E0,1.519347274E1
5.439011583E0,-3.901037750E0,1.178529236E1,9.126371613E0,1.540785093E1
5.448970583E0,-4.799170074E0,1.164832718E1,8.990603943E0,1.547729042E1
5.458928583E0,-4.875062256E0,1.201281921E1,8.309071198E0,1.539852985E1
5.468887583E0,-3.614982605E0,1.276335846E1,7.305558014E0,1.514406142E1
5.478845583E0,-1.787582703E0,1.336331085E1,6.993906097E0,1.518842491E1
5.488804583E0,-6.489006042E-1,1.368484222E1,7.759863281E0,1.574520425E1
5.498762583E0,-6.087840271E-1,1.385174515E1,8.931925964E0,1.649305196E1
5.508721583E0,-1.338516541E0,1.377360764E1,1.005444168E1,1.710542871E1
5.518679583E0,-2.515219574E0,1.337753128E1,1.067789520E1,1.730035025E1
5.528638583E0,-3.698957977E0,1.283580780E1,1.085542603E1,1.721280123E1
5.538596583E0,-4.371210022E0,1.234437973E1,1.030891251E1,1.666627928E1
5.548555583E0,-3.870501251E0,1.198258209E1,9.058712311E0,1.551203798E1
5.558513583E0,-2.519710236E0,1.173005722E1,7.841892700E0,1.433312468E1
5.568472583E0,-1.011446686E0,1.167317551E1,7.165599060E0,1.373433146E1
5.578430583E0,1.254391479E-1,1.187465652E1,6.981931000E0,1.377572368E1
5.588389583E0,7.485932922E-1,1.203961349E1,7.506290588E0,1.420764173E1
5.598347583E0,8.997789001E-1,1.211116470E1,8.297096100E0,1.470821934E1
5.608306583E0,6.463558960E-1,1.223031693E1,8.759933624E0,1.505771779E1
5.618264583E0,5.219645691E-1,1.246802261E1,8.867110748E0,1.530848418E1
5.628223583E0,1.329984283E0,1.265663040E1,8.691675568E0,1.541117697E1
5.638181583E0,2.603236542E0,1.278147079E1,8.532257080E0,1.558660473E1
5.648140583E0,3.541335754E0,1.296244446E1,8.590785370E0,1.594890650E1
5.658098583E0,3.839066620E0,1.325403809E1,8.848998413E0,1.639245958E1
5.668057583E0,3.718866577E0,1.351524490E1,9.238338776E0,1.678805280E1
5.678015583E0,3.537144470E0,1.357422226E1,9.731712799E0,1.707270145E1
5.687974583E0,3.649860077E0,1.350476669E1,1.004905289E1,1.722450771E1
5.697932583E0,4.175267487E0,1.340597214E1,9.905950470E0,1.718373656E1
5.707891583E0,4.925806732E0,1.342857513E1,9.312135315E0,1.706769071E1
5.717849583E0,5.450316010E0,1.345536942E1,8.683742065E0,1.691627284E1
5.727807583E0,5.581443329E0,1.326301941E1,8.349487152E0,1.663652996E1
5.737766583E0,5.358556824E0,1.293026138E1,8.267457733E0,1.625597269E1
5.747724583E0,5.134323120E0,1.266396515E1,8.099207611E0,1.588503859E1
5.757683583E0,4.967569885E0,1.247745300E1,7.667804718E0,1.546476037E1
5.767641583E0,4.881648560E0,1.224513611E1,7.310048676E0,1.507350864E1
5.777600583E0,4.870571594E0,1.203003342E1,7.076983337E0,1.478268801E1
5.787558583E0,4.938380585E0,1.190339676E1,6.961723022E0,1.464732210E1
5.797517583E0,4.924160156E0,1.179562088E1,6.851103058E0,1.450247008E1
5.807475583E0,4.709805908E0,1.138906631E1,6.717880096E0,1.403648874E1
5.817434583E0,4.571792908E0,1.097802109E1,6.356381836E0,1.348413243E1
5.827392583E0,4.729265442E0,1.076815750E1,5.672903137E0,1.305760306E1
5.837351583E0,5.193001099E0,1.048434769E1,5.055886230E0,1.274561856E1
5.847309583E0,5.817801819E0,1.014290771E1,4.555476837E0,1.254901447E1
5.857268583E0,6.242917786E0,9.761949921E0,4.117936707E0,1.229744248E1
5.867226208E0,6.130202179E0,9.326804810E0,3.690276031E0,1.175528834E1
5.877185208E0,5.682183838E0,8.845106506E0,3.297941895E0,1.101814608E1
5.887143208E0,5.199737091E0,8.333470459E0,2.780168610E0,1.020849319E1
5.897102208E0,5.004992065E0,8.058941345E0,2.370021515E0,9.778214723E0
5.907060208E0,5.302722931E0,8.093070374E0,2.001338196E0,9.880385272E0
5.917019208E0,5.939648438E0,8.203540649E0,1.828148346E0,1.029172625E1
5.926977208E0,6.315516815E0,8.070617065E0,1.990410919E0,1.043946110E1
5.936936208E0,6.074368286E0,7.508984985E0,2.492317200E0,9.974690502E0
5.946894208E0,5.254672852E0,6.979685669E0,2.887495422E0,9.201371019E0
5.956853208E0,4.220174103E0,6.636000366E0,2.937192078E0,8.394847683E0
5.966811208E0,3.544479218E0,6.212680664E0,2.686313782E0,7.640485305E0
5.976770208E0,3.327729950E0,5.787415009E0,2.372865601E0,7.085086468E0
5.986728208E0,3.466790771E0,5.563630371E0,1.990859985E0,6.850995887E0
5.996687208E0,3.777544556E0,5.497318268E0,1.568139038E0,6.851964029E0
6.006645208E0,3.935915222E0,5.421426086E0,1.251397705E0,6.815371278E0
6.016604208E0,3.689228210E0,5.251679077E0,1.219514008E0,6.532821162E0
6.026562208E0,3.475173340E0,5.134323120E0,1.337768097E0,6.342533179E0
6.036520208E0,3.360661469E0,4.948260040E0,1.366957397E0,6.135788088E0
6.046479208E0,3.498524780E0,4.786446533E0,1.331032104E0,6.076297599E0
6.056437208E0,3.765868835E0,4.665797424E0,1.179247742E0,6.110814915E0
6.066396208E0,4.048481140E0,4.605173492E0,9.027726746E-1,6.197807753E0
6.076354208E0,4.168531494E0,4.591102753E0,5.785469055E-1,6.228129400E0
6.086313208E0,3.942501526E0,4.450694733E0,2.624043274E-1,5.951542482E0
6.096271208E0,3.560046844E0,4.318070526E0,1.625619507E-1,5.598758165E0
6.106230208E0,3.227887573E0,4.305496674E0,1.841171265E-1,5.384278866E0
6.116188208E0,3.114872589E0,4.409380646E0,9.894424438E-2,5.399523950E0
6.126147208E0,3.107088776E0,4.532873840E0,6.256988525E-2,5.495894914E0
6.136105208E0,3.335364075E0,4.669988708E0,-8.113128662E-2,5.739340584E0
6.146064208E0,3.747606812E0,4.916675720E0,-3.547622681E-1,6.192262367E0
6.156022208E0,3.938908997E0,5.133424988E0,-5.343887329E-1,6.492505488E0
6.165981208E0,3.706292725E0,5.191055145E0,-6.725514221E-1,6.413734068E0
6.175939208E0,3.179987183E0,5.009333038E0,-7.219487000E-1,5.977202180E0
6.185898208E0,2.824027405E0,4.827461243E0,-6.987469482E-1,5.636289571E0
6.195856208E0,2.659669189E0,4.746779022E0,-6.201603699E-1,5.476344599E0
6.205815208E0,2.546803894E0,4.612957306E0,-2.710862732E-1,5.276274533E0
6.215773208E0,2.381098480E0,4.566553802E0,4.540058899E-1,5.170025624E0
6.225732208E0,2.283052368E0,4.762196960E0,1.120120697E0,5.398658943E0
6.235690208E0,2.093097382E0,5.105882263E0,9.367520142E-1,5.597195250E0
6.245649208E0,1.743274841E0,5.437293091E0,2.014810181E-1,5.713471618E0
6.255607208E0,1.044378204E0,5.507646790E0,-5.923182678E-1,5.636997421E0
6.265566208E0,7.783813477E-2,5.240153046E0,-9.361532593E-1,5.323687222E0
6.275524208E0,-8.635542297E-1,4.997357941E0,-7.951464844E-1,5.133378052E0
6.285483208E0,-1.722917175E0,5.010979614E0,-5.827381897E-1,5.330848346E0
6.295441208E0,-1.981279907E0,5.105732574E0,-6.448590088E-1,5.514509800E0
6.305400208E0,-1.829495544E0,5.350473633E0,-8.613088989E-1,5.719831734E0
6.315358208E0,-1.731748810E0,5.665269012E0,-1.083297272E0,6.022271988E0
6.325316208E0,-1.724563751E0,5.781577148E0,-1.146465912E0,6.141265223E0
6.335275208E0,-1.931283875E0,5.627547455E0,-1.136885834E0,6.057363879E0
6.345233208E0,-2.275567932E0,5.493725739E0,-1.082249451E0,6.044046308E0
6.355192208E0,-2.399959259E0,5.596861267E0,-9.659413147E-1,6.165849748E0
6.365150208E0,-2.400707703E0,6.049519958E0,-8.812174988E-1,6.567848467E0
6.375109208E0,-2.354304199E0,6.620133362E0,-8.590635681E-1,7.078623044E0
6.385067208E0,-2.442171478E0,7.045848083E0,-8.864566040E-1,7.509592669E0
6.395026208E0,-2.918331299E0,7.191345520E0,-8.057743835E-1,7.802652133E0
6.404984208E0,-3.673061829E0,7.046746216E0,-5.626799011E-1,7.966468735E0
6.414943208E0,-4.306245117E0,6.860234070E0,-2.486329651E-1,8.103602708E0
6.424901208E0,-4.702171783E0,6.745123444E0,1.691482544E-2,8.222371669E0
6.434860208E0,-4.860991516E0,6.983876953E0,-4.610412598E-2,8.509165729E0
6.444818208E0,-4.743485870E0,7.488178253E0,-4.772076416E-1,8.877003936E0
6.454777208E0,-4.586612091E0,8.028404846E0,-8.761280823E-1,9.287620538E0
6.464735208E0,-4.444707184E0,8.288414154E0,-7.469467163E-1,9.434572621E0
6.474694208E0,-4.245920563E0,8.191116486E0,-3.014730835E-1,9.231095099E0
6.484652208E0,-4.148622894E0,8.113727417E0,3.209326172E-1,9.118478067E0
6.494611208E0,-4.052672424E0,8.299640808E0,8.788224792E-1,9.277958842E0
6.504569208E0,-3.770060120E0,8.770860901E0,1.104852448E0,9.610517841E0
6.514528208E0,-3.435954895E0,9.328601074E0,1.003213806E0,9.991747694E0
6.524486208E0,-3.336262207E0,9.778116302E0,8.753796387E-1,1.036863026E1
6.534445208E0,-3.494483185E0,1.005114853E1,1.098415833E0,1.069782767E1
6.544403208E0,-3.432062988E0,1.003213806E1,1.663640442E0,1.073268606E1
6.554362208E0,-3.073259125E0,9.801767120E0,2.384691010E0,1.054544032E1
6.564320208E0,-2.945125580E0,9.697733459E0,2.955154724E0,1.055711790E1
6.574279208E0,-2.942580872E0,1.015488281E1,3.124752045E0,1.102472233E1
6.584237208E0,-2.968177643E0,1.092413315E1,2.906056824E0,1.168725502E1
6.594196208E0,-3.042722626E0,1.137394775E1,2.601589966E0,1.205790690E1
6.604154208E0,-3.763922882E0,1.155566986E1,2.382295990E0,1.238450466E1
6.614113208E0,-4.397255859E0,1.140193954E1,2.488874359E0,1.247135037E1
6.624071208E0,-3.898942108E0,1.109837082E1,3.063828735E0,1.215576534E1
6.634030208E0,-3.369044037E0,1.089419540E1,3.683090973E0,1.198328462E1
6.643988208E0,-2.642305298E0,1.114402588E1,4.026925964E0,1.214031395E1
6.653947208E0,-1.950743408E0,1.189546326E1,3.945195923E0,1.268353329E1
6.663905208E0,-1.810784454E0,1.264570312E1,3.895648956E0,1.335547935E1
6.673864208E0,-2.235451355E0,1.285556671E1,3.996688843E0,1.364684432E1
6.683822208E0,-2.759062500E0,1.249092499E1,4.436923370E0,1.353964261E1
6.693781208E0,-3.034489746E0,1.199530563E1,5.001549225E0,1.334582256E1
6.703739208E0,-3.057392120E0,1.173125473E1,5.543123016E0,1.333027370E1
6.713698208E0,-2.799029388E0,1.161270126E1,5.760920105E0,1.326188511E1
6.723656208E0,-2.512974243E0,1.175280991E1,5.531297607E0,1.323022424E1
6.733615208E0,-2.211650848E0,1.184950882E1,5.075794830E0,1.307921832E1
6.743573208E0,-2.099983063E0,1.172197403E1,4.583618317E0,1.276025709E1
6.753532208E0,-2.024539948E0,1.154159912E1,4.242777100E0,1.246228028E1
6.763490208E0,-1.943109283E0,1.146944916E1,4.160597992E0,1.235453412E1
6.773449208E0,-1.989961853E0,1.152782776E1,4.231400757E0,1.244007690E1
6.783407208E0,-1.938019867E0,1.149923721E1,4.369713135E0,1.245322329E1
6.793366208E0,-1.582359467E0,1.139699982E1,4.359234924E0,1.230440553E1
6.803324208E0,-9.792636108E-1,1.130898285E1,4.160148926E0,1.208961908E1
6.813283208E0,-6.822811890E-1,1.132455048E1,3.985911255E0,1.202490913E1
6.823241208E0,-1.111588440E0,1.120569763E1,4.052822113E0,1.196781749E1
6.833200208E0,-1.687291260E0,1.107756409E1,4.585863647E0,1.210741605E1
6.843158208E0,-1.909579010E0,1.088027435E1,5.084027710E0,1.216035360E1
6.853117208E0,-1.937870178E0,1.057176590E1,5.414241028E0,1.203459933E1
6.863075208E0,-1.763033752E0,1.039827667E1,5.309458923E0,1.180774321E1
6.873034083E0,-1.116079102E0,1.045171555E1,4.920268250E0,1.160573264E1
6.882992083E0,-3.782633972E-1,1.054197784E1,4.475842438E0,1.145903773E1
6.892951083E0,1.429527283E-1,1.068508026E1,4.406536560E0,1.155893335E1
6.902909083E0,4.593946838E-1,1.093805420E1,4.748126221E0,1.193301201E1
6.912868083E0,6.155200195E-1,1.077010345E1,5.079836426E0,1.192387233E1
6.922826083E0,4.869374084E-1,1.045141617E1,5.230572968E0,1.169735447E1
6.932785083E0,3.246748352E-1,1.041638901E1,5.198539581E0,1.164608894E1
6.942743083E0,3.718267822E-1,1.059616516E1,5.032534790E0,1.173641247E1
6.952702083E0,6.399192810E-1,1.078926361E1,4.943619690E0,1.188516224E1
6.962660083E0,9.641450500E-1,1.085767136E1,5.016518097E0,1.199933568E1
6.972619083E0,1.168619843E0,1.069825287E1,5.157075806E0,1.193372187E1
6.982577083E0,1.393302612E0,1.041593994E1,5.309758301E0,1.177398107E1
6.992536083E0,1.315763855E0,1.020607635E1,5.348377991E0,1.159742972E1
7.002494083E0,1.152303772E0,1.006611740E1,5.276228027E0,1.142335790E1
7.012453083E0,1.205143890E0,1.004785538E1,5.123695221E0,1.134301645E1
7.022411083E0,1.244362335E0,1.001342697E1,4.879253540E0,1.120822343E1
7.032370083E0,1.263372803E0,9.918674011E0,4.709955597E0,1.105259638E1
7.042328083E0,1.388662262E0,9.815388794E0,4.532574463E0,1.090020510E1
7.052287083E0,1.518442383E0,9.735155640E0,4.384831696E0,1.078451073E1
7.062245083E0,1.595532074E0,9.652377777E0,4.233047333E0,1.065986909E1
7.072204083E0,1.767524414E0,9.640252991E0,4.118685150E0,1.063118938E1
7.082162083E0,1.801952820E0,9.641151123E0,4.073628845E0,1.062041811E1
7.092120083E0,1.826052704E0,9.762099609E0,4.256847839E0,1.080526773E1
7.102079083E0,1.833986206E0,9.752070465E0,4.471800842E0,1.088408869E1
7.112038083E0,1.675166473E0,9.649084625E0,4.602778473E0,1.082111762E1
7.121996083E0,1.548679504E0,9.435628510E0,4.698728943E0,1.065399208E1
7.131954083E0,1.387015686E0,9.245074768E0,4.705764313E0,1.046610901E1
7.141913083E0,1.168170776E0,9.085207214E0,4.644990692E0,1.027042120E1
7.151871083E0,1.140178986E0,9.082213440E0,4.513414307E0,1.020575905E1
7.161830083E0,1.335522766E0,9.025930481E0,4.319268036E0,1.009490557E1
7.171788083E0,1.488504639E0,8.911717987E0,3.871249695E0,9.829594994E0
7.181747083E0,1.285526733E0,8.867410126E0,3.391497345E0,9.580490361E0
7.191705083E0,9.645941162E-1,8.815917206E0,3.162473602E0,9.415523208E0
7.201664083E0,7.554789734E-1,8.707392883E0,3.205284576E0,9.309311925E0
7.211622083E0,6.577322388E-1,8.728498993E0,3.404370575E0,9.391967067E0
7.221581083E0,7.438032532E-1,8.851243744E0,3.479214935E0,9.539533304E0
7.231539083E0,7.809260559E-1,8.848399658E0,3.444187775E0,9.527142879E0
7.241498083E0,7.744894409E-1,8.803493042E0,3.257076874E0,9.418591901E0
7.251456083E0,8.223898315E-1,8.785231018E0,3.091670837E0,9.349600935E0
7.261415083E0,9.391470337E-1,8.789422302E0,2.957250366E0,9.321012353E0
7.271373083E0,9.027726746E-1,8.814420319E0,2.944377136E0,9.336935299E0
7.281332083E0,6.364764404E-1,8.926986237E0,3.221750336E0,9.511879980E0
7.291290083E0,4.507127380E-1,9.165889435E0,3.729494476E0,9.905846766E0
7.301249083E0,5.430706787E-1,9.229357452E0,4.186045074E0,1.014883925E1
7.311207083E0,7.589218140E-1,9.170978851E0,4.150718536E0,1.009511168E1
7.321166083E0,8.405021667E-1,9.177265778E0,3.838617554E0,9.983167622E0
7.331124083E0,7.455995178E-1,9.085805969E0,3.358116760E0,9.715180746E0
7.341083083E0,6.387217712E-1,8.876241760E0,2.957699432E0,9.377825932E0
7.351041083E0,6.168672180E-1,8.816216583E0,2.730022888E0,9.249822970E0
7.361000083E0,5.493576050E-1,8.807534637E0,2.725232849E0,9.235873226E0
7.370958083E0,4.343966675E-1,8.815617828E0,2.791395264E0,9.257197507E0
7.380917083E0,3.222798157E-1,8.829089813E0,2.740501099E0,9.250245266E0
7.390875083E0,1.989363098E-1,8.836723938E0,2.750230865E0,9.256945253E0
7.400834083E0,1.372645569E-1,8.954229584E0,2.702480164E0,9.354168484E0
7.410792083E0,1.362167358E-2,9.029373322E0,2.820135498E0,9.459541868E0
7.420751083E0,2.664459229E-2,9.161698151E0,2.903362427E0,9.610771890E0
7.430709083E0,7.080276489E-2,9.054521027E0,2.707270203E0,9.450855834E0
7.440668083E0,2.270777893E-1,8.951235809E0,2.705923004E0,9.354047581E0
7.450626083E0,1.342707825E-1,8.946595459E0,2.571951599E0,9.309915895E0
7.460585083E0,-1.610650635E-1,8.999585266E0,2.673440552E0,9.389662470E0
7.470543083E0,-3.454815674E-1,8.941206665E0,2.649041290E0,9.331771209E0
7.480502083E0,-4.763095093E-1,8.802894287E0,2.414778442E0,9.140512759E0
7.490460083E0,-3.490740967E-1,8.768765259E0,2.268682251E0,9.064216240E0
7.500419083E0,7.259902954E-2,8.877588959E0,2.736908569E0,9.290184328E0
7.510377083E0,4.456233215E-1,9.195827179E0,3.408861237E0,9.817441244E0
7.520336083E0,6.457571411E-1,9.473350067E0,4.046984253E0,1.032179468E1
7.530294083E0,4.775070190E-1,9.462722168E0,4.361779633E0,1.043054387E1
7.540253083E0,2.348616028E-1,9.379195862E0,4.210294647E0,1.028353325E1
7.550211083E0,-2.544708252E-3,9.364526367E0,3.552263031E0,1.001563444E1
7.560170083E0,-2.097138977E-1,9.384135590E0,3.010539551E0,9.857450435E0