"Time (s)","Acceleration x (m/s^2)","Acceleration y (m/s^2)","Acceleration z (m/s^2)","Absolute acceleration (m/s^2)"
1.937124995E-3,-3.069666595E0,4.809049530E0,7.529941406E0,9.447212709E0
1.189612498E-2,-2.932851105E0,4.803810425E0,7.524103546E0,9.396294183E0
2.185512503E-2,-2.839295654E0,4.768633575E0,7.594008179E0,9.405871900E0
3.181412502E-2,-2.675835571E0,4.636608124E0,7.581883392E0,9.281335393E0
4.177312501E-2,-2.564317474E0,4.512216797E0,7.720944214E0,9.303160973E0
5.173212499E-2,-2.525847473E0,4.427343292E0,7.878416748E0,9.383534757E0
6.169112498E-2,-2.639012146E0,4.409680023E0,8.043822784E0,9.545299786E0
7.165012503E-2,-2.711012421E0,4.395609283E0,8.072113953E0,9.582796720E0
8.160912502E-2,-2.694995728E0,4.437821503E0,8.061036987E0,9.588408573E0
9.156812500E-2,-2.679278412E0,4.433929596E0,8.219108276E0,9.715554813E0
1.015271250E-1,-2.739602966E0,4.478836212E0,8.401279449E0,9.906911457E0
1.114861250E-1,-2.690205688E0,4.509971466E0,8.255632324E0,9.784299379E0
1.214451250E-1,-2.528691559E0,4.479135590E0,8.251590729E0,9.723460607E0
1.314041250E-1,-2.657723236E0,4.523144073E0,8.448730774E0,9.945017687E0
1.413631250E-1,-2.863395538E0,4.589605865E0,8.504564667E0,1.007924284E1
1.513221250E-1,-2.942580872E0,4.596940613E0,8.468489685E0,1.007501676E1
1.612811250E-1,-3.043471069E0,4.599335632E0,8.305328979E0,9.969708816E0
1.712401250E-1,-3.131038971E0,4.725672913E0,8.188122711E0,9.958952909E0
1.811991250E-1,-3.117566986E0,4.858895874E0,8.204588470E0,1.003211668E1
1.911581250E-1,-2.427801361E0,4.912334747E0,7.866741028E0,9.587015517E0
2.011171250E-1,-1.497336273E0,4.900808716E0,7.371870117E0,8.977995935E0
2.110761250E-1,-1.486259308E0,4.907993774E0,7.324119415E0,8.940922482E0
2.210351250E-1,-2.407144318E0,4.951104126E0,7.560028839E0,9.352102003E0
2.309941250E-1,-3.034190369E0,4.772675171E0,7.658224640E0,9.520144123E0
2.409531250E-1,-2.999612274E0,4.209546204E0,7.950566711E0,9.483114682E0
2.509121250E-1,-2.782863007E0,3.571273499E0,8.327632599E0,9.478807183E0
2.608714167E-1,-2.737806702E0,3.015778656E0,8.624016266E0,9.537513460E0
2.708304166E-1,-2.723436584E0,2.962788849E0,8.568781128E0,9.466743612E0
2.807894167E-1,-2.658022614E0,3.364703064E0,8.707841949E0,9.706328984E0
2.907474167E-1,-3.006647644E0,3.610791321E0,9.089099121E0,1.023178708E1
3.007074167E-1,-3.036735077E0,3.594475250E0,9.630373535E0,1.071849368E1
3.106664167E-1,-3.433709564E0,3.584595795E0,1.014694931E1,1.129602889E1
3.206244167E-1,-3.784879303E0,3.763024750E0,1.015458344E1,1.147175799E1
3.305834167E-1,-4.191284180E0,3.762725372E0,9.912237396E0,1.140076381E1
3.405434167E-1,-4.727319489E0,3.685485992E0,9.695637817E0,1.139893632E1
3.505014167E-1,-4.283193054E0,3.409609680E0,9.647288361E0,1.109240072E1
3.604604166E-1,-3.931424561E0,3.630849609E0,9.802665253E0,1.116832190E1
3.704194167E-1,-4.070485382E0,4.105063477E0,9.919272766E0,1.148095682E1
3.803784167E-1,-4.232149200E0,4.446353760E0,9.937534790E0,1.168057132E1
3.903374167E-1,-4.227359161E0,4.270319824E0,9.867031403E0,1.155268391E1
4.002974167E-1,-4.350103912E0,4.270319824E0,9.790690155E0,1.153328440E1
4.102554166E-1,-4.127965851E0,4.408332825E0,9.759704590E0,1.147716577E1
4.202144167E-1,-3.665128326E0,4.347409515E0,9.142687683E0,1.076670206E1
4.301734167E-1,-3.429218903E0,4.482129364E0,7.421866150E0,9.323793384E0
4.401324167E-1,-2.887645111E0,4.805457001E0,7.789501648E0,9.597252065E0
4.500914167E-1,-2.677631836E0,4.550387421E0,8.521928558E0,1.002491917E1
4.600504166E-1,-2.279908905E0,4.319717102E0,8.996890869E0,1.023728410E1
4.700094167E-1,-1.603166199E0,4.739743652E0,9.072333984E0,1.036062526E1
4.799684167E-1,-7.241940308E-1,5.418731689E0,8.946445770E0,1.048456017E1
4.899274167E-1,-2.543211365E-1,5.914949799E0,9.082512817E0,1.084174107E1
4.998864167E-1,-4.369413757E-1,5.987099762E0,9.505084076E0,1.124201515E1
5.098454166E-1,-2.984793091E-1,5.854625244E0,9.750274200E0,1.137688770E1
5.198044167E-1,-1.818717957E-1,6.045927429E0,9.484427032E0,1.124902982E1
5.297634167E-1,1.520837402E-1,6.360423431E0,9.311536560E0,1.127753647E1
5.397224167E-1,7.054829407E-1,6.757547607E0,9.404193878E0,1.160176790E1
5.496814167E-1,1.047371979E0,7.149732056E0,9.325607300E0,1.179756789E1
5.596404166E-1,1.401385803E0,7.394024048E0,9.030570831E0,1.175528321E1
5.695994167E-1,1.667682037E0,7.608527985E0,8.559500427E0,1.157306826E1
5.795584167E-1,1.706002350E0,7.707621918E0,8.032296753E0,1.126213438E1
5.895174167E-1,1.500479736E0,7.835905151E0,7.999065857E0,1.129769461E1
5.994764167E-1,1.625469818E0,7.842491455E0,8.081843719E0,1.137818185E1
6.094354166E-1,2.108964386E0,8.137677612E0,7.936945038E0,1.156134180E1
6.193944167E-1,2.638114014E0,8.494685211E0,7.694299622E0,1.176101905E1
6.293534167E-1,2.885100403E0,8.707243195E0,7.722441101E0,1.199066241E1
6.393124167E-1,2.964285736E0,8.706494751E0,7.837701416E0,1.208385718E1
6.492714167E-1,3.150498505E0,8.788524170E0,7.715106354E0,1.211142700E1
6.592304166E-1,3.460803223E0,8.914262695E0,7.420968018E0,1.210421433E1
6.691894167E-1,3.710484009E0,8.945098572E0,7.148983612E0,1.203704477E1
6.791484167E-1,4.066593475E0,8.990154877E0,6.701414337E0,1.192765783E1
6.891074167E-1,4.574187927E0,9.189540253E0,6.266119537E0,1.202643336E1
6.990664167E-1,5.075345764E0,9.498946838E0,5.841901703E0,1.225222189E1
7.090254166E-1,5.451663208E0,9.780511322E0,5.739664307E0,1.258263803E1
7.189844167E-1,5.576503601E0,9.879754944E0,6.026467896E0,1.284621600E1
7.289434167E-1,5.730084229E0,9.875114594E0,6.411167908E0,1.309407604E1
7.389024167E-1,5.938450928E0,9.881551208E0,6.506070557E0,1.323779467E1
7.488614167E-1,6.174510040E0,9.848919067E0,6.202950897E0,1.317582562E1
7.588204167E-1,6.424939270E0,9.831255798E0,5.742957458E0,1.307344620E1
7.687794167E-1,6.625671844E0,9.789342957E0,5.438789978E0,1.301196370E1
7.787384167E-1,6.618337097E0,9.712702332E0,5.407055969E0,1.293735780E1
7.886974167E-1,6.454278259E0,9.532327423E0,5.570965118E0,1.278900412E1
7.986564166E-1,6.374793549E0,9.344617767E0,5.639522552E0,1.263978198E1
8.086154167E-1,6.428681488E0,9.175768890E0,5.466781769E0,1.246628988E1
8.185744167E-1,6.424041138E0,9.013656006E0,5.233716431E0,1.224361412E1
8.285334167E-1,6.380930786E0,8.812174988E0,5.079237671E0,1.200705464E1
8.384924167E-1,6.195765839E0,8.579259338E0,4.965773621E0,1.168974391E1
8.484514166E-1,5.971232758E0,8.315807190E0,4.934039612E0,1.136455088E1
8.584104167E-1,5.783373413E0,8.014483795E0,5.002896423E0,1.107737926E1
8.683694167E-1,5.539231110E0,7.608078918E0,4.988376617E0,1.065128384E1
8.783284167E-1,5.277724915E0,7.223528595E0,4.562212830E0,1.004228717E1
8.882874167E-1,5.032534790E0,6.920259247E0,4.043691101E0,9.464028327E0
8.982464166E-1,4.625082092E0,6.623127136E0,3.626508636E0,8.854872236E0
9.082054167E-1,4.134851532E0,6.241720276E0,3.367098083E0,8.209349469E0
9.181644167E-1,3.686533813E0,5.915847931E0,3.255879364E0,7.693408785E0
9.281234167E-1,3.347937927E0,5.610183563E0,3.115471344E0,7.238025261E0
9.380824167E-1,3.010689240E0,5.254672852E0,2.969973907E0,6.745115380E0
9.480414166E-1,2.596949615E0,4.975802765E0,2.867886200E0,6.302978004E0
9.580004167E-1,2.113455048E0,4.704267426E0,2.683170319E0,5.813452262E0
9.679594167E-1,1.613494720E0,4.481680298E0,2.336640930E0,5.305536197E0
9.779184167E-1,1.154998169E0,4.280348969E0,1.920057220E0,4.831358794E0
9.878774167E-1,7.755372620E-1,4.079167328E0,1.465302887E0,4.403200732E0
9.978364166E-1,4.902305603E-1,3.898493042E0,9.409432983E-1,4.040290620E0
1.007795417E0,1.761836243E-1,3.751798096E0,5.445675659E-1,3.795205324E0
1.017754417E0,-1.827699280E-1,3.593726807E0,3.857478333E-1,3.618988615E0
1.027713417E0,-5.352868652E-1,3.480711823E0,3.709286499E-1,3.541112097E0
1.037672417E0,-7.783813477E-1,3.380121002E0,1.713935852E-1,3.472818923E0
1.047631417E0,-9.571096802E-1,3.266806641E0,-2.856060791E-1,3.416087733E0
1.057590417E0,-1.183738403E0,3.193309479E0,-7.556286621E-1,3.488471973E0
1.067549417E0,-1.376238098E0,3.157084808E0,-1.106948090E0,3.617533671E0
1.077508417E0,-1.462907867E0,3.205134888E0,-1.331331482E0,3.766355346E0
1.087467417E0,-1.341360626E0,3.219505005E0,-1.461560669E0,3.781616109E0
1.097426417E0,-1.273401947E0,3.158581696E0,-1.506467285E0,3.723927299E0
1.107385417E0,-1.539847870E0,3.162024536E0,-1.437610474E0,3.799507140E0
1.117344417E0,-1.678759003E0,3.230881348E0,-1.589095459E0,3.972662891E0
1.127303417E0,-1.738784180E0,3.193159790E0,-1.677411804E0,4.004166609E0
1.137262417E0,-2.002984772E0,3.334765320E0,-1.535806274E0,4.182261188E0
1.147221417E0,-2.128573608E0,3.689677277E0,-1.391805725E0,4.481257322E0
1.157180417E0,-2.347119141E0,3.794010315E0,-1.279688873E0,4.641237566E0
1.167139417E0,-2.749332733E0,3.598965912E0,-1.215173035E0,4.689139752E0
1.177098417E0,-3.454965363E0,3.329077148E0,-1.273851013E0,4.964094753E0
1.187057417E0,-4.139192505E0,3.422333221E0,-1.410217438E0,5.552836437E0
1.197016417E0,-4.577181702E0,4.053420868E0,-1.506766663E0,6.296916614E0
1.206975417E0,-4.852459259E0,4.674928436E0,-1.265019379E0,6.855770618E0
1.216934417E0,-5.428162079E0,5.197192383E0,-5.093907166E-1,7.532279278E0
1.226893417E0,-6.088439026E0,5.832471313E0,2.592608643E-1,8.435284677E0
1.236852417E0,-6.559958496E0,6.410419464E0,1.358125763E0,9.272056879E0
1.246811417E0,-6.899302826E0,7.130422211E0,2.821033630E0,1.031511178E1
1.256770625E0,-7.154971161E0,8.399034119E0,4.016896820E0,1.174192686E1
1.266729625E0,-7.254963226E0,9.655670929E0,5.439987488E0,1.324612911E1
1.276688625E0,-7.384144592E0,1.054601944E1,7.080126801E0,1.469259381E1
1.286647625E0,-7.506739655E0,1.145762375E1,7.910749512E0,1.581797206E1
1.296606625E0,-7.627089386E0,1.218301529E1,7.754175110E0,1.633173554E1
1.306565625E0,-7.392078094E0,1.288191193E1,7.221582642E0,1.651477306E1
1.316524625E0,-6.378386078E0,1.371537872E1,7.020700378E0,1.667590046E1
1.326483625E0,-5.315745850E0,1.479194000E1,7.265142059E0,1.731591557E1
1.336442625E0,-4.242028656E0,1.582179840E1,7.892637177E0,1.818289948E1
1.346401625E0,-3.319048004E0,1.674043808E1,8.793463898E0,1.919852479E1
1.356360625E0,-2.637066193E0,1.731539246E1,1.020173538E1,2.026949281E1
1.366319625E0,-2.067799988E0,1.781535278E1,1.137080429E1,2.123576657E1
1.376278625E0,-1.285826111E0,1.861124771E1,1.124521545E1,2.178271702E1
1.386237625E0,-2.137554932E-1,1.901855072E1,1.057071808E1,2.175984935E1
1.396196625E0,7.496411133E-1,1.921149948E1,1.048329987E1,2.189847598E1
1.406155625E0,1.226998444E0,1.941417801E1,1.115390533E1,2.242376947E1
1.416114625E0,1.489103394E0,1.911599808E1,1.208541824E1,2.266486588E1
1.426073625E0,2.142045593E0,1.873548935E1,1.239632172E1,2.256713789E1
1.436032625E0,3.011886749E0,1.829884735E1,1.205727676E1,2.212006327E1
1.445991625E0,4.143383789E0,1.790681259E1,1.120135666E1,2.152421793E1
1.455950625E0,5.172344055E0,1.750235367E1,1.026101212E1,2.093738037E1
1.465909625E0,5.820196838E0,1.685539902E1,9.543853455E0,2.022533822E1
1.475868625E0,6.100264435E0,1.600860992E1,8.793763275E0,1.925666353E1
1.485827625E0,6.116131439E0,1.513427811E1,7.884404297E0,1.812780375E1
1.495786625E0,5.968688049E0,1.450588486E1,6.791676636E0,1.709306304E1
1.505745625E0,5.915249176E0,1.392090134E1,6.023025055E0,1.628061724E1
1.515704625E0,5.946384430E0,1.342558136E1,5.464835815E0,1.566748714E1
1.525663625E0,5.952072601E0,1.315868637E1,5.157225494E0,1.533542207E1
1.535622625E0,5.875881042E0,1.277892609E1,5.402415619E0,1.506695140E1
1.545581625E0,5.902226257E0,1.222852066E1,5.774841156E0,1.475539843E1
1.555540625E0,5.980663147E0,1.165985321E1,5.763315125E0,1.431559673E1
1.565499625E0,6.128405914E0,1.107232498E1,5.650449829E0,1.385934063E1
1.575458625E0,6.315965881E0,1.041174866E1,5.646557922E0,1.342309769E1
1.585417625E0,6.525230713E0,9.716294861E0,5.632487183E0,1.298883881E1
1.595376625E0,6.718478851E0,8.987909546E0,5.370082855E0,1.244018754E1
1.605335625E0,6.958579559E0,8.262518005E0,4.958887939E0,1.188619379E1
1.615294625E0,6.967560883E0,7.611671448E0,4.499642944E0,1.125749677E1
1.625253625E0,6.682104492E0,6.972799988E0,4.136348419E0,1.050618096E1
1.635212625E0,6.381978607E0,6.446494446E0,3.833827515E0,9.848105147E0
1.645171625E0,6.261179810E0,6.079158325E0,3.461851044E0,9.388447752E0
1.655130625E0,6.405030670E0,5.857619019E0,3.000809784E0,9.183734415E0
1.665089625E0,6.811285858E0,5.766308899E0,2.749183044E0,9.338197940E0
1.675048625E0,7.103029175E0,5.619164886E0,2.728526001E0,9.459011133E0
1.685007625E0,7.022047577E0,5.469775543E0,2.565065918E0,9.263215415E0
1.694966625E0,6.659950562E0,5.237009583E0,2.406096497E0,8.807412287E0
1.704925625E0,6.082900543E0,4.850213928E0,2.243384857E0,8.096853079E0
1.714884625E0,5.421126709E0,4.315226440E0,1.905387726E0,7.186118313E0
1.724843625E0,4.828059998E0,3.757635956E0,1.307081909E0,6.256073404E0
1.734802625E0,4.241130524E0,3.158282318E0,6.906637573E-1,5.332818368E0
1.744761625E0,3.746259613E0,2.698139191E0,1.303788757E-1,4.618594465E0
1.754719625E0,3.517086182E0,2.510429535E0,-2.070195007E-1,4.326084689E0
1.764678625E0,3.397484894E0,2.511477356E0,-1.008901978E-1,4.226180420E0
1.774637625E0,3.152743835E0,2.656974792E0,2.600093079E-1,4.131212120E0
1.784596625E0,2.667602692E0,2.765050049E0,4.538562012E-1,3.868797144E0
1.794555625E0,2.179916840E0,2.664159851E0,4.375401306E-1,3.470047047E0
1.804514625E0,1.660496979E0,2.361489258E0,1.791773987E-1,2.892401471E0
1.814473625E0,9.813592529E-1,2.132615204E0,-4.055067444E-1,2.382341141E0
1.824432625E0,3.155438232E-1,1.985620880E0,-1.237925720E0,2.361084131E0
1.834391625E0,-3.335064697E-1,1.858834534E0,-2.046544189E0,2.784750529E0
1.844350625E0,-1.175206146E0,1.699865112E0,-2.561772766E0,3.291402526E0
1.854309625E0,-2.082469482E0,1.472487946E0,-3.010689240E0,3.945776171E0
1.864268625E0,-3.095113678E0,1.415755920E0,-3.437451782E0,4.837372041E0
1.874227625E0,-3.930975494E0,1.338217163E0,-3.647914124E0,5.527266138E0
1.884186625E0,-4.512516174E0,1.113235016E0,-3.642974396E0,5.905366786E0
1.894145625E0,-4.927153931E0,9.020242310E-1,-3.546724548E0,6.137568622E0
1.904104625E0,-5.009782104E0,1.050665131E0,-3.156635742E0,6.013830989E0
1.914063625E0,-4.665498047E0,1.518741760E0,-2.399061127E0,5.461587942E0
1.924022625E0,-3.899989929E0,2.022743683E0,-1.992057495E0,4.823868418E0
1.933981625E0,-3.389401703E0,2.347119141E0,-2.066003723E0,4.611440507E0
1.943940625E0,-3.605252838E0,2.635718994E0,-2.058668976E0,4.917619403E0
1.953899625E0,-4.302203522E0,2.777025146E0,-1.535806274E0,5.345982110E0
1.963858625E0,-4.991969147E0,2.844085693E0,-4.528083801E-1,5.763125439E0
1.973817625E0,-5.155279541E0,3.050207062E0,6.518943787E-1,6.025415882E0
1.983776625E0,-4.992418213E0,3.374732208E0,1.302142181E0,6.165114058E0
1.993735625E0,-4.966971130E0,3.583248596E0,1.592837677E0,6.328317674E0
2.003694625E0,-5.220693512E0,3.770808563E0,1.929786987E0,6.722999017E0
2.013653625E0,-5.720354462E0,4.296066284E0,2.589315491E0,7.608100643E0
2.023612625E0,-6.252048798E0,5.196743317E0,3.654799805E0,8.913574865E0
2.033571625E0,-6.530619507E0,6.358776855E0,5.582790527E0,1.068880650E1
2.043530625E0,-6.421945496E0,7.732919312E0,7.473059692E0,1.252541601E1
2.053489625E0,-6.491850128E0,8.560847626E0,8.550219727E0,1.373093178E1
2.063448625E0,-7.028334503E0,8.925639038E0,9.202563171E0,1.462024921E1
2.073407625E0,-7.962092743E0,9.413025513E0,9.117240601E0,1.533375513E1
2.083366625E0,-8.775800629E0,9.833650818E0,8.392896881E0,1.562549465E1
2.093325625E0,-9.309740295E0,1.031460068E1,7.582033081E0,1.582875476E1
2.103284625E0,-9.537267151E0,1.097323105E1,7.319029999E0,1.627696116E1
2.113243625E0,-8.942254486E0,1.166778671E1,8.023315430E0,1.674738047E1
2.123202625E0,-7.491471405E0,1.251397705E1,8.500972137E0,1.688159627E1
2.133161625E0,-6.032305756E0,1.363140335E1,8.991651764E0,1.740843679E1
2.143120625E0,-4.769831085E0,1.502680161E1,9.997559967E0,1.866834916E1
2.153079625E0,-3.756139069E0,1.605740845E1,1.131976044E1,2.000214796E1
2.163038625E0,-3.336860962E0,1.633942200E1,1.249257156E1,2.083688308E1
2.172997625E0,-3.523822174E0,1.637669449E1,1.282338364E1,2.109627012E1
2.182956625E0,-3.726051636E0,1.641965515E1,1.244003082E1,2.093425191E1
2.192915625E0,-3.114722900E0,1.645363449E1,1.194815369E1,2.057138700E1
2.202874625E0,-1.842518463E0,1.659613815E1,1.151016449E1,2.028079294E1
2.212833625E0,-5.590873718E-1,1.694865509E1,1.193168793E1,2.073486592E1
2.222792625E0,9.134005737E-1,1.739442810E1,1.323891953E1,2.187851503E1
2.232751625E0,2.577939148E0,1.758034149E1,1.446861237E1,2.291407692E1
2.242710625E0,3.709585876E0,1.740804977E1,1.500719238E1,2.328125958E1
2.252669625E0,4.273163910E0,1.713546661E1,1.460168564E1,2.291491587E1
2.262628250E0,4.728217621E0,1.657772644E1,1.340133179E1,2.183512650E1
2.272587250E0,5.250032501E0,1.582973190E1,1.179621964E1,2.042777646E1
2.282546250E0,5.554349670E0,1.524714340E1,1.031400192E1,1.922770964E1
2.292505250E0,5.727539520E0,1.471215591E1,9.339378662E0,1.834328854E1
2.302464250E0,6.071075134E0,1.429272812E1,8.452772369E0,1.768019771E1
2.312423250E0,6.638994141E0,1.405098083E1,7.414830780E0,1.721876944E1
2.322382250E0,7.305707703E0,1.379082184E1,6.483168182E0,1.689945566E1
2.332341250E0,7.952662354E0,1.342333603E1,5.910010071E0,1.668409445E1
2.342300250E0,8.354726257E0,1.313922684E1,5.688620453E0,1.657712687E1
2.352259250E0,8.542884979E0,1.280721725E1,5.715265045E0,1.642163062E1
2.362218250E0,8.477920074E0,1.224768082E1,5.649252319E0,1.593094052E1
2.372177250E0,8.125403137E0,1.175191177E1,5.399721222E0,1.527372239E1
2.382136250E0,7.820786591E0,1.134775223E1,4.969366150E0,1.465028271E1
2.392095250E0,7.758665771E0,1.094000015E1,4.562063141E0,1.416661279E1
2.402054250E0,7.751181335E0,1.065963318E1,4.220473480E0,1.383911081E1
2.412013250E0,7.828271027E0,1.042761566E1,4.200115814E0,1.369883092E1
2.421971250E0,7.924371185E0,1.016895355E1,4.343367920E0,1.360397442E1
2.431930250E0,7.890840912E0,1.002555176E1,4.553381195E0,1.354659879E1
2.441889250E0,7.789501648E0,9.970765686E0,4.635260925E0,1.347509362E1
2.451848250E0,7.644004211E0,9.691446533E0,4.722679138E0,1.321584786E1
2.461807250E0,7.063511353E0,9.252708893E0,4.874313812E0,1.262001385E1
2.471766250E0,6.170169067E0,8.753497009E0,4.985233154E0,1.181301172E1
2.481725250E0,5.266198883E0,7.956554260E0,4.934788055E0,1.074205472E1
2.491684250E0,4.215084686E0,7.112010498E0,4.500092010E0,9.412675514E0
2.501643250E0,2.860551453E0,6.362668762E0,3.897445221E0,7.991019187E0
2.511602250E0,1.174757080E0,5.635930023E0,3.478915558E0,6.726560405E0
2.521561250E0,-5.004093933E-1,4.941224670E0,3.241509247E0,5.930724492E0
2.531520250E0,-2.004781036E0,4.279151459E0,2.739752655E0,5.462282382E0
2.541479250E0,-3.294199677E0,3.672762451E0,2.009720764E0,5.327280083E0
2.551438250E0,-4.409680023E0,3.169658661E0,1.151106262E0,5.551311517E0
2.561397250E0,-5.272036743E0,2.807112579E0,1.199006653E-1,5.973996035E0
2.571356250E0,-5.979465637E0,2.530637512E0,-8.931925964E-1,6.554077245E0
2.581315250E0,-6.626120911E0,2.371518402E0,-1.765877838E0,7.255887430E0
2.591274250E0,-7.175478516E0,2.233954468E0,-2.447410583E0,7.903661370E0
2.601233250E0,-7.521109772E0,2.060016174E0,-3.047512665E0,8.372460348E0
2.611192250E0,-7.760761414E0,1.841620331E0,-3.583098907E0,8.744116933E0
2.621151250E0,-7.929011536E0,1.733096008E0,-4.010460205E0,9.052990487E0
2.631110250E0,-7.924670563E0,1.578766937E0,-4.326303406E0,9.165686539E0
2.641069250E0,-7.973768463E0,1.418150940E0,-4.756359100E0,9.392288724E0
2.651028250E0,-7.916437683E0,1.202449493E0,-5.159470825E0,9.525545106E0
2.660987250E0,-7.954757996E0,1.100661163E0,-5.572462006E0,9.774556899E0
2.670946250E0,-7.967631226E0,9.761201477E-1,-5.693260803E0,9.841197918E0
2.680905250E0,-7.837551727E0,7.755372620E-1,-5.688321075E0,9.715228859E0
2.690864250E0,-7.711214447E0,6.295907593E-1,-5.743107147E0,9.635480916E0
2.700823250E0,-7.439379730E0,5.269042969E-1,-5.733976135E0,9.407469438E0
2.710782250E0,-7.068002014E0,5.536985779E-1,-5.826334076E0,9.176568169E0
2.720741250E0,-6.573430481E0,5.749543762E-1,-5.598657532E0,8.653642411E0
2.730700250E0,-5.914650421E0,6.358776855E-1,-5.157973938E0,7.873507807E0
2.740659250E0,-5.179678802E0,7.429051208E-1,-4.901557159E0,7.169814719E0
2.750618250E0,-4.337380371E0,9.389973450E-1,-4.847369843E0,6.572030043E0
2.760577250E0,-3.545976105E0,1.119072876E0,-4.811893616E0,6.081166895E0
2.770536250E0,-2.803520050E0,1.153052216E0,-4.438569946E0,5.374956488E0
2.780495250E0,-2.073937225E0,1.289418640E0,-3.894750824E0,4.597053407E0
2.790454250E0,-1.479373627E0,1.683399353E0,-3.234024811E0,3.934627833E0
2.800413250E0,-9.928852844E-1,2.094743958E0,-2.372865601E0,3.317267640E0
2.810372250E0,-6.267466736E-1,2.352208557E0,-1.356179810E0,2.786560634E0
2.820331250E0,-4.396357727E-1,2.585872650E0,-7.213499451E-1,2.720360770E0
2.830290250E0,-2.270777893E-1,2.522254944E0,-1.772314453E-1,2.538650293E0
2.840249250E0,-2.109114075E-1,2.544708252E0,5.622308350E-1,2.614598864E0
2.850208250E0,-2.014810181E-1,2.682721252E0,1.920356598E0,3.305352838E0
2.860167250E0,2.139051819E-1,2.927612000E0,3.638334045E0,4.674841395E0
2.870126250E0,7.893086243E-1,3.354374542E0,4.691094818E0,5.820756589E0
2.880085250E0,1.321152649E0,3.645668793E0,5.159770203E0,6.454422810E0
2.890044250E0,1.447040863E0,3.751798096E0,5.484145660E0,6.800424239E0
2.900003250E0,1.296154633E0,3.816014557E0,5.938750305E0,7.177098238E0
2.909962250E0,1.529070282E0,4.061054993E0,6.532565460E0,7.842489087E0
2.919921250E0,2.285447388E0,4.735851746E0,7.007677460E0,8.761227363E0
2.929879250E0,3.558999023E0,5.521567841E0,7.300169220E0,9.820725844E0
2.939838250E0,5.288502502E0,6.214177551E0,7.411986694E0,1.102369303E1
2.949797250E0,6.987170105E0,6.984924774E0,7.223079529E0,1.223857010E1
2.959756250E0,8.473579102E0,7.619904327E0,7.007677460E0,1.337804276E1
2.969715250E0,9.726473694E0,8.115673370E0,6.955436096E0,1.445152366E1
2.979674250E0,1.055245605E1,8.616082764E0,6.988666992E0,1.531119451E1
2.989633250E0,1.124641296E1,9.277108154E0,7.023394775E0,1.618254042E1
2.999592250E0,1.194441147E1,1.010488678E1,7.335495758E0,1.727967593E1
3.009551250E0,1.294373337E1,1.088970474E1,7.736960907E0,1.860071146E1
3.019510250E0,1.407223663E1,1.151390671E1,8.189918976E0,1.994173173E1
3.029469250E0,1.481783615E1,1.217104019E1,8.673413544E0,2.104591623E1
3.039428250E0,1.507470200E1,1.287637344E1,9.077423401E0,2.180475290E1
3.049387250E0,1.487172409E1,1.344234650E1,9.426497498E0,2.215228457E1
3.059346250E0,1.439391769E1,1.390548340E1,9.769883423E0,2.227101159E1
3.069305250E0,1.375848907E1,1.419004166E1,1.019440063E1,2.223913461E1
3.079264250E0,1.303594162E1,1.422506882E1,1.091425369E1,2.216775339E1
3.089223250E0,1.215981354E1,1.400008667E1,1.188693100E1,2.202640735E1
3.099182250E0,1.121393051E1,1.386970779E1,1.286185364E1,2.198973194E1
3.109141250E0,1.022014709E1,1.397029861E1,1.388347916E1,2.218944892E1
3.119100250E0,9.166338501E0,1.391970383E1,1.496512985E1,2.239944257E1
3.129059250E0,7.763904877E0,1.367286713E1,1.591969482E1,2.237548207E1
3.139018250E0,6.132896576E0,1.341016342E1,1.660227539E1,2.220541492E1
3.148977250E0,4.467459869E0,1.322200470E1,1.704505463E1,2.202983189E1
3.158936250E0,2.736908569E0,1.322649536E1,1.715896774E1,2.183714775E1
3.168895250E0,1.059197388E0,1.361673386E1,1.684492081E1,2.168614067E1
3.178854250E0,-6.201603699E-1,1.409513901E1,1.653746017E1,2.173810322E1
3.188813250E0,-2.095043335E0,1.443912369E1,1.664119446E1,2.213158043E1
3.198772250E0,-2.919678497E0,1.463476685E1,1.667098251E1,2.237459678E1
3.208731250E0,-3.405717773E0,1.466739899E1,1.644001282E1,2.229362079E1
3.218690250E0,-3.838467865E0,1.449825073E1,1.602866821E1,2.195111192E1
3.228649250E0,-4.667593689E0,1.420875275E1,1.544503189E1,2.149939756E1
3.238608250E0,-5.813311157E0,1.364637222E1,1.496527954E1,2.107077723E1
3.248567250E0,-6.875053253E0,1.283416122E1,1.428763870E1,2.039898702E1
3.258525417E0,-7.741601257E0,1.184007843E1,1.344040054E1,1.951318052E1
3.268484417E0,-8.363408203E0,1.089988358E1,1.236713242E1,1.848512978E1
3.278443417E0,-8.774004364E0,1.000220032E1,1.149444717E1,1.758264712E1
3.288402417E0,-9.073082428E0,9.192084961E0,1.079644867E1,1.683385145E1
3.298361417E0,-9.213640137E0,8.431217194E0,9.965676270E0,1.597783751E1
3.308320417E0,-9.375902710E0,7.673492889E0,9.101523285E0,1.515347389E1
3.318279417E0,-9.617051239E0,7.065756683E0,8.171507263E0,1.446326806E1
3.328238417E0,-9.683063965E0,6.483168182E0,7.250023499E0,1.372428644E1
3.338197417E0,-9.635612640E0,5.937103729E0,6.361620941E0,1.298323737E1
3.348156417E0,-9.574539642E0,5.521268463E0,5.485043793E0,1.233863527E1
3.358115417E0,-9.477092285E0,5.093158722E0,4.753515015E0,1.176228927E1
3.368074417E0,-9.432185669E0,4.645888824E0,4.171225891E0,1.131147802E1
3.378033417E0,-9.438023529E0,4.150419159E0,3.555256805E0,1.090605879E1
3.387991417E0,-9.443562012E0,3.726351013E0,2.894680481E0,1.055678599E1
3.397950417E0,-9.395062866E0,3.438649292E0,2.196681976E0,1.024289641E1
3.407909417E0,-9.243877258E0,3.171005859E0,1.639690247E0,9.909244625E0
3.417868417E0,-8.961564331E0,2.949167175E0,1.194066925E0,9.509627654E0
3.427827417E0,-8.580157471E0,2.624043274E0,8.530760193E-1,9.012904306E0
3.437786417E0,-8.104746094E0,2.227068787E0,5.306465149E-1,8.421895888E0
3.447745417E0,-7.627538452E0,1.895508270E0,1.104702759E-1,7.860311579E0
3.457704417E0,-7.042405243E0,1.622476044E0,-3.438349915E-1,7.235062033E0
3.467663417E0,-6.466253357E0,1.329086151E0,-7.628137207E-1,6.645358323E0
3.477622417E0,-5.894741821E0,1.098715210E0,-1.120869141E0,6.100123268E0
3.487581417E0,-5.192701721E0,9.166937256E-1,-1.310674438E0,5.433446975E0
3.497540417E0,-4.640200653E0,7.979905701E-1,-1.162332916E0,4.849666881E0
3.507499417E0,-4.313130798E0,9.848020935E-1,-6.044430542E-1,4.465230549E0
3.517458417E0,-3.878584442E0,1.184786224E0,1.442999268E-1,4.058073205E0
3.527417417E0,-3.273842010E0,1.204395447E0,8.990304565E-1,3.602341692E0
3.537376417E0,-2.493365021E0,1.277293854E0,1.335822144E0,3.103670330E0
3.547335417E0,-1.576970673E0,1.312470703E0,1.738335114E0,2.689093679E0
3.557294417E0,-3.860472107E-1,1.310375061E0,2.565514984E0,2.906541309E0
3.567253417E0,8.587641907E-1,1.425485687E0,3.428919525E0,3.811426831E0
3.577212417E0,1.756746826E0,1.617835693E0,3.852538605E0,4.532726050E0
3.587171417E0,2.057621155E0,1.879341888E0,3.920497284E0,4.809992693E0
3.597130417E0,1.964365082E0,1.844913483E0,4.170776825E0,4.965663627E0
3.607089417E0,1.898052979E0,1.565594330E0,4.356839905E0,5.003573190E0
3.617048417E0,2.353406067E0,1.418450317E0,4.169130249E0,4.993212238E0
3.627007417E0,3.276237030E0,1.588047638E0,3.816463623E0,5.274563391E0
3.636966417E0,4.697531433E0,2.146835632E0,3.676804047E0,6.339920567E0
3.646925417E0,6.088139648E0,2.880759430E0,4.144281921E0,7.908178799E0
3.656884417E0,7.191944275E0,3.512296143E0,4.957091675E0,9.414512442E0
3.666843417E0,7.380402374E0,3.862717438E0,5.724096680E0,1.010723543E1
3.676802417E0,7.053033142E0,3.988306274E0,6.420298920E0,1.033789638E1
3.686761417E0,7.096742249E0,4.093088379E0,6.497837677E0,1.045652990E1
3.696720417E0,7.934999084E0,4.498295746E0,5.837261353E0,1.082924260E1
3.706679417E0,9.245972900E0,5.176834717E0,5.198389893E0,1.180300343E1
3.716638417E0,1.039737854E1,5.916596375E0,5.279521179E0,1.307612087E1
3.726597417E0,1.101035385E1,6.500532074E0,5.613776093E0,1.396421466E1
3.736556417E0,1.119402191E1,6.790479126E0,5.913003845E0,1.436594403E1
3.746515417E0,1.076336746E1,6.894812164E0,6.167474670E0,1.419247187E1
3.756474417E0,1.055589890E1,6.984924774E0,6.313720551E0,1.414493700E1
3.766432417E0,1.074046509E1,7.268435211E0,6.249653778E0,1.439603810E1
3.776391417E0,1.108864105E1,7.926167450E0,6.328988800E0,1.502791370E1
3.786350417E0,1.160401932E1,8.444838867E0,6.531517639E0,1.576798308E1
3.796309417E0,1.198078583E1,8.748407593E0,6.726112976E0,1.628847630E1
3.806268417E0,1.182061890E1,8.983269196E0,7.089407501E0,1.645253340E1
3.816227417E0,1.126108246E1,8.987460480E0,7.887398071E0,1.642551285E1
3.826186417E0,1.092383377E1,9.116791534E0,8.516390076E0,1.658236811E1
3.836145417E0,1.081471069E1,9.547895050E0,8.629405060E0,1.681032120E1
3.846104417E0,1.107861191E1,1.018422180E1,8.544830933E0,1.730514811E1
3.856063417E0,1.156794434E1,1.079584991E1,8.447682953E0,1.793686313E1
3.866022417E0,1.185669388E1,1.125314896E1,8.663833466E0,1.850071786E1
3.875981417E0,1.180400345E1,1.154923325E1,9.267677765E0,1.893697804E1
3.885940417E0,1.137484589E1,1.160416901E1,1.002001328E1,1.909043015E1
3.895899417E0,1.045066772E1,1.134011810E1,1.072624466E1,1.878475603E1
3.905858417E0,9.270372162E0,1.098894836E1,1.123907822E1,1.824866201E1
3.915817417E0,8.061785431E0,1.069451065E1,1.143996048E1,1.761356404E1
3.925776417E0,7.165000305E0,1.040905426E1,1.144295425E1,1.704778115E1
3.935735417E0,6.538253632E0,9.970017242E0,1.131631760E1,1.643803663E1
3.945694417E0,5.802084503E0,9.550739136E0,1.118968094E1,1.581422657E1
3.955653417E0,5.148992615E0,9.207502899E0,1.106978027E1,1.529150973E1
3.965612417E0,4.783452759E0,8.840316467E0,1.056188644E1,1.458033130E1
3.975571417E0,4.428690491E0,8.769813080E0,9.717342682E0,1.381845396E1
3.985530417E0,3.782035217E0,9.007069702E0,9.077273712E0,1.333521627E1
3.995489417E0,3.241209869E0,9.183852081E0,8.774004364E0,1.310846036E1
4.005448417E0,2.767894135E0,9.375753021E0,8.658594360E0,1.305899073E1
4.015407417E0,2.387834473E0,9.758507080E0,8.647816772E0,1.325575154E1
4.025366417E0,1.928888855E0,1.026176056E1,8.578959961E0,1.351380391E1
4.035325417E0,1.422491913E0,1.069121750E1,8.691525879E0,1.385165106E1
4.045284417E0,1.008752289E0,1.083536774E1,8.915460205E0,1.406798514E1
4.055243417E0,7.595205688E-1,1.084375031E1,8.839568024E0,1.401077282E1
4.065202417E0,6.539900208E-1,1.094104797E1,8.632249146E0,1.395170094E1
4.075161417E0,5.495072937E-1,1.107816284E1,8.574319611E0,1.401950809E1
4.085120417E0,2.776725769E-1,1.126796814E1,8.677455139E0,1.422471215E1
4.095079417E0,-1.806742859E-1,1.138442596E1,8.851543121E0,1.442177567E1
4.105038417E0,-6.773414612E-1,1.128652954E1,9.015751648E0,1.446126960E1
4.114997417E0,-1.250649261E0,1.100436630E1,9.040749664E0,1.429669038E1
4.124955417E0,-1.645378418E0,1.068972061E1,8.848699036E0,1.397415012E1
4.134914417E0,-1.641636200E0,1.052940399E1,8.422235870E0,1.358298108E1
4.144873417E0,-1.491648102E0,1.055036041E1,7.998317413E0,1.332322034E1
4.154832417E0,-1.082997894E0,1.067684738E1,7.854466553E0,1.329889466E1
4.164791417E0,-8.533753967E-1,1.071696396E1,7.791597290E0,1.327744533E1
4.174750417E0,-8.997789001E-1,1.055574921E1,7.736362152E0,1.311810744E1
4.184709417E0,-1.162482605E0,1.023571472E1,7.536827087E0,1.276420715E1
4.194668417E0,-1.549877014E0,9.872420197E0,7.030280457E0,1.221849592E1
4.204627417E0,-1.861528931E0,9.529633026E0,6.332731018E0,1.159235428E1
4.214586417E0,-1.944157104E0,9.162895660E0,5.627846832E0,1.092753695E1
4.224545417E0,-1.835782471E0,8.820258179E0,4.952002258E0,1.028053393E1
4.234504417E0,-1.637594604E0,8.618028717E0,4.301754456E0,9.770221413E0
4.244463417E0,-1.391955414E0,8.534801788E0,3.695964203E0,9.404282686E0
4.254422417E0,-1.186283112E0,8.466244354E0,3.235821075E0,9.140847834E0
4.264382625E0,-1.080902252E0,8.394992523E0,3.026855621E0,8.989221551E0
4.274341625E0,-1.009201355E0,8.287066956E0,2.921025696E0,8.844566536E0
4.284300625E0,-9.382489014E-1,8.041128387E0,2.857707367E0,8.585251781E0
4.294259625E0,-8.903485107E-1,7.807763672E0,2.702779541E0,8.310169148E0
4.304218625E0,-8.918453979E-1,7.513475647E0,2.484683075E0,7.963752538E0
4.314177625E0,-8.750802612E-1,7.311246185E0,2.243384857E0,7.697588055E0
4.324136625E0,-8.625064087E-1,7.113357697E0,2.095941467E0,7.465704632E0
4.334095625E0,-9.276210022E-1,6.797664185E0,1.977837067E0,7.140067125E0
4.344054625E0,-1.066083069E0,6.450536041E0,1.837279358E0,6.791284398E0
4.354013625E0,-1.244062958E0,6.113586731E0,1.651964722E0,6.453884319E0
4.363972625E0,-1.493444366E0,5.766458588E0,1.422940979E0,6.124310716E0
4.373931625E0,-1.649120636E0,5.381309509E0,1.218166809E0,5.758647522E0
4.383890625E0,-1.617835693E0,5.043761444E0,1.024619293E0,5.395068724E0
4.393849625E0,-1.583257599E0,4.801714783E0,9.017248535E-1,5.135783990E0
4.403808625E0,-1.486408997E0,4.546794891E0,9.030720520E-1,4.868089422E0
4.413767625E0,-1.270707550E0,4.325554962E0,1.030307465E0,4.624570994E0
4.423725625E0,-9.160949707E-1,4.240681458E0,1.196911011E0,4.500578317E0
4.433684625E0,-4.505630493E-1,4.191433868E0,1.330732727E0,4.420630557E0
4.443643625E0,6.436614990E-3,4.103716278E0,1.384021912E0,4.330825022E0
4.453602625E0,4.257147217E-1,4.007316742E0,1.320553894E0,4.240717284E0
4.463561625E0,8.741821289E-1,3.842808838E0,1.205143890E0,4.121134062E0
4.473520625E0,1.430724792E0,3.708238678E0,1.053958282E0,4.112035455E0
4.483479625E0,2.162852325E0,3.613186340E0,8.602610779E-1,4.298033833E0
4.493438625E0,2.908751221E0,3.503314819E0,7.146139526E-1,4.609199658E0
4.503397625E0,3.608545990E0,3.469634857E0,7.289840698E-1,5.058793135E0
4.513356625E0,4.247417450E0,3.536695404E0,8.656498718E-1,5.594472189E0
4.523315625E0,4.813540192E0,3.706891479E0,1.034498749E0,6.162905263E0
4.533274625E0,5.271737366E0,3.862268372E0,1.290915527E0,6.661440890E0
4.543233625E0,5.708379364E0,3.872596893E0,1.717229004E0,7.108549579E0
4.553192625E0,6.034551086E0,4.021986237E0,2.183209991E0,7.573545139E0
4.563151625E0,6.265520782E0,4.154460754E0,2.798280945E0,8.021637681E0
4.573110625E0,6.686595154E0,4.174668732E0,3.113675079E0,8.475457880E0
4.583069625E0,7.409441986E0,4.182452545E0,2.883453827E0,8.983710025E0
4.593028625E0,8.535849609E0,4.198618927E0,2.567760315E0,9.853046355E0
4.602987625E0,9.573940887E0,4.483476562E0,2.315834198E0,1.082243014E1
4.612946625E0,9.925260315E0,5.005291443E0,2.368225250E0,1.136539597E1
4.622905625E0,9.937834167E0,5.428311768E0,2.820584564E0,1.166973924E1
4.632864625E0,9.835297394E0,5.720653839E0,3.485651550E0,1.189994630E1
4.642823625E0,9.763746185E0,5.977369995E0,3.996239777E0,1.212557726E1
4.652782625E0,9.641749878E0,6.245163116E0,4.404440918E0,1.230302820E1
4.662741625E0,9.484726410E0,6.537355499E0,4.559069366E0,1.238879193E1
4.672700625E0,9.628277893E0,7.023694153E0,4.437971191E0,1.271737406E1
4.682659625E0,9.836345215E0,7.739505615E0,4.273912354E0,1.322573103E1
4.692618625E0,9.945168915E0,8.674910431E0,4.306843872E0,1.388197968E1
4.702577625E0,9.972262573E0,9.345815277E0,4.736300812E0,1.446453696E1
4.712536625E0,9.653874664E0,9.711055756E0,5.392236786E0,1.471659327E1
4.722495625E0,9.046886902E0,1.001447479E1,6.118676147E0,1.481803178E1
4.732454625E0,8.273744659E0,1.029618896E1,6.670877838E0,1.479753253E1
4.742412625E0,7.522007904E0,1.048614395E1,7.102580109E0,1.473046035E1
4.752371625E0,6.845414886E0,1.053449341E1,7.561376038E0,1.466320783E1
4.762330625E0,6.298452301E0,1.052715866E1,7.902666321E0,1.459259079E1
4.772289625E0,5.799988861E0,1.050650162E1,8.169411621E0,1.451777301E1
4.782248625E0,5.396877136E0,1.041863434E1,8.495583344E0,1.448617136E1
4.792207625E0,5.315895538E0,1.016880386E1,8.583899689E0,1.432992154E1
4.802166625E0,5.314698029E0,9.968969421E0,8.377029877E0,1.406417420E1
4.812125625E0,5.242697754E0,9.811047821E0,8.064629517E0,1.373975212E1
4.822084625E0,5.062622223E0,9.484277344E0,7.734116821E0,1.324379944E1
4.832043625E0,4.979694672E0,9.038055267E0,7.310198364E0,1.264605876E1
4.842002625E0,4.913382568E0,8.750652924E0,6.750661926E0,1.209490353E1
4.851961625E0,4.702770538E0,8.539142761E0,6.251000977E0,1.158050185E1
4.861920625E0,4.531826019E0,8.291258240E0,5.956114197E0,1.116949894E1
4.871879625E0,4.413122864E0,8.010891266E0,5.768254852E0,1.081308450E1
4.881838625E0,4.346810760E0,7.790399780E0,5.536836090E0,1.049960220E1
4.891797625E0,4.337380371E0,7.668553162E0,5.258115692E0,1.025998814E1
4.901756625E0,4.302802277E0,7.584278412E0,5.036875763E0,1.007002999E1
4.911715625E0,4.363875275E0,7.464976501E0,5.021008759E0,9.998990476E0
4.921674625E0,4.497247925E0,7.326364746E0,5.012027435E0,9.950943589E0
4.931633625E0,4.523892517E0,7.246131592E0,4.967869263E0,9.881890080E0
4.941592625E0,4.548890533E0,7.049290924E0,5.020260315E0,9.776907550E0
4.951551625E0,4.655618591E0,6.871311035E0,4.905598755E0,9.641296539E0
4.961510625E0,4.841232605E0,6.914122009E0,4.801116028E0,9.710475344E0
4.971469625E0,4.904550934E0,7.060367889E0,4.879702606E0,9.885085337E0
4.981428625E0,4.922214203E0,6.966063995E0,5.055586853E0,9.915301240E0
4.991387625E0,4.886887665E0,6.796167297E0,5.133724365E0,9.819607265E0
5.001346625E0,4.705614624E0,6.728058929E0,5.008434906E0,9.617380421E0
5.011305625E0,4.506378937E0,6.631958771E0,4.972359924E0,9.434759747E0
5.021264625E0,4.248764648E0,6.456673279E0,4.964576111E0,9.186274916E0
5.031222625E0,3.954626312E0,6.336922302E0,4.857698364E0,8.910268623E0
5.041181625E0,3.584745483E0,6.269562378E0,4.891677704E0,8.722747466E0
5.051140625E0,3.181933136E0,6.214327240E0,5.040767670E0,8.611149762E0
5.061099625E0,2.825224915E0,6.134992218E0,5.199288025E0,8.523650703E0
5.071058625E0,2.552941132E0,6.030509491E0,5.227878571E0,8.379455083E0
5.081017625E0,2.353106689E0,5.888604584E0,5.156177673E0,8.173062048E0
5.090976625E0,2.195634155E0,5.786666565E0,5.117108917E0,8.030636522E0
5.100935625E0,1.872905273E0,5.708379364E0,5.236261139E0,7.969429079E0
5.110894625E0,1.513951721E0,5.589676208E0,5.573809204E0,8.037653823E0
5.120853625E0,1.389710083E0,5.420228577E0,5.835016022E0,8.084403745E0
5.130812625E0,1.458417206E0,5.391488342E0,6.041586456E0,8.227751467E0
5.140771625E0,1.663191376E0,5.454656982E0,6.239474945E0,8.452841885E0
5.150730625E0,2.007325745E0,5.479505310E0,6.292315063E0,8.581815889E0
5.160689625E0,2.380200348E0,5.333259430E0,6.219266968E0,8.531605444E0
5.170648625E0,2.887495422E0,5.122348022E0,6.052663422E0,8.438649985E0
5.180607625E0,3.543431396E0,4.964725800E0,5.901178436E0,8.486949703E0
5.190566625E0,3.988006897E0,4.942721558E0,5.873036957E0,8.650275054E0
5.200525625E0,4.517455902E0,5.097350006E0,6.021827545E0,9.091358089E0
5.210484625E0,5.013524323E0,5.197940826E0,6.395151215E0,9.646345112E0
5.220443625E0,5.344785461E0,5.184618530E0,6.689439240E0,1.000977514E1
5.230402625E0,5.597909088E0,5.091811523E0,6.778803406E0,1.015949341E1
5.240361625E0,5.862708435E0,4.925956421E0,6.626120911E0,1.012629622E1
5.250320625E0,6.325545959E0,4.697082367E0,6.358028412E0,1.012421057E1
5.260279375E0,6.701713715E0,4.614005127E0,6.220464478E0,1.024188402E1
5.270238375E0,6.944957886E0,4.758754120E0,6.418652344E0,1.058665569E1
5.280197375E0,7.189249878E0,4.784500580E0,6.915020142E0,1.106319408E1
5.290155375E0,7.479496307E0,4.773872681E0,7.141798553E0,1.139025952E1
5.300114375E0,7.905211029E0,4.761149139E0,7.182813263E0,1.169417414E1
5.310073375E0,8.095315704E0,4.846621399E0,7.068900146E0,1.178953878E1
5.320032375E0,7.853568420E0,4.867278442E0,6.989415436E0,1.158537287E1
5.329991375E0,7.471862183E0,4.701573029E0,7.115603027E0,1.133866482E1
5.339950375E0,7.364385681E0,4.856500854E0,7.398215332E0,1.151318232E1
5.349909375E0,7.519014130E0,5.306315460E0,7.619904327E0,1.194803328E1
5.359868375E0,7.504793701E0,5.825735321E0,7.897876282E0,1.235465784E1
5.369827375E0,7.409591675E0,6.208489380E0,8.302634583E0,1.274288547E1
5.379786375E0,7.191944275E0,6.339167633E0,8.562194824E0,1.285380445E1
5.389745375E0,6.627617798E0,6.230942688E0,8.733588409E0,1.261053254E1
5.399704375E0,5.577701111E0,6.049519958E0,9.210197296E0,1.235051317E1
5.409663375E0,4.142934723E0,6.118676147E0,1.022508682E1,1.261564530E1
5.419622375E0,2.909649353E0,6.552174683E0,1.168784500E1,1.371141033E1
5.429581375E0,2.179318085E0,6.801556091E0,1.266127075E1,1.453679365E1
5.439540375E0,2.062411194E0,6.856641541E0,1.295540909E1,1.480235447E1
5.449499375E0,2.105671234E0,6.983727264E0,1.265603165E1,1.460758142E1
5.459458375E0,1.910028076E0,7.012317810E0,1.184861069E1,1.390001380E1
5.469417375E0,1.451381836E0,6.625073090E0,1.111708191E1,1.302258088E1
5.479376375E0,6.189628601E-1,5.913602600E0,1.083117645E1,1.235589714E1
5.489335375E0,-4.559518433E-1,5.207969971E0,1.080827408E1,1.200623304E1
5.499294375E0,-1.498384094E0,4.477189636E0,1.082833237E1,1.181283894E1
5.509253375E0,-2.376009064E0,3.813170471E0,1.102696930E1,1.190712980E1
5.519212375E0,-3.115022278E0,3.261268158E0,1.112950607E1,1.200854443E1
5.529171375E0,-3.642225952E0,2.957250366E0,1.121737335E1,1.215897218E1
5.539130375E0,-4.167333984E0,2.909649353E0,1.159788208E1,1.266268536E1
5.549088375E0,-4.584366760E0,2.741099854E0,1.220322327E1,1.332098739E1
5.559047375E0,-4.790787506E0,2.544857941E0,1.270093826E1,1.381092972E1
5.569006375E0,-4.508923645E0,2.121089172E0,1.268656815E1,1.363005587E1
5.578965375E0,-3.913012848E0,1.643133087E0,1.216999237E1,1.288876527E1
5.588924375E0,-3.416495361E0,1.356179810E0,1.140388550E1,1.198166385E1
5.598883375E0,-3.050805817E0,8.421487427E-1,1.072878937E1,1.118586393E1
5.608842375E0,-2.880460052E0,1.760339355E-1,1.004396347E1,1.045032250E1
5.618801375E0,-2.821632385E0,-5.749543762E-1,9.408534851E0,9.839344993E0
5.628760375E0,-2.996019745E0,-1.247206421E0,8.883127441E0,9.457357522E0
5.638719375E0,-3.232078857E0,-1.631607056E0,8.655151520E0,9.381904026E0
5.648678375E0,-3.244053955E0,-2.033521271E0,8.925639038E0,9.712163871E0
5.658637375E0,-3.152893524E0,-2.321672058E0,9.369316406E0,1.015455507E1
5.668596375E0,-2.832110596E0,-2.402653656E0,9.814340973E0,1.049356392E1
5.678555375E0,-2.166295166E0,-2.721939697E0,1.010982651E1,1.069160336E1
5.688514375E0,-8.282276917E-1,-3.280877380E0,9.916129303E0,1.047758263E1
5.698473375E0,7.351213074E-1,-3.195405121E0,9.297765198E0,9.858978390E0
5.708432375E0,1.574425964E0,-2.843187561E0,8.721613312E0,9.307473953E0
5.718391375E0,1.853745117E0,-2.948269043E0,8.403674469E0,9.096725009E0
5.728350375E0,1.935475159E0,-3.139122162E0,8.158334656E0,8.953132211E0
5.738309375E0,1.998643799E0,-3.273093567E0,7.987539825E0,8.860502864E0
5.748268375E0,2.178869019E0,-3.496728516E0,8.083939362E0,9.073293565E0
5.758227375E0,2.542313232E0,-3.711382141E0,8.174051971E0,9.330211123E0
5.768186375E0,3.094514923E0,-3.731739807E0,8.096812592E0,9.437175358E0
5.778145375E0,3.951931915E0,-3.545227661E0,8.122109985E0,9.703353835E0
5.788104375E0,4.962630157E0,-3.202739868E0,8.295000458E0,1.018294031E1
5.798063375E0,5.636977844E0,-2.756667480E0,8.307873688E0,1.041131596E1
5.808021375E0,5.888005829E0,-2.424208832E0,8.326435089E0,1.048212394E1
5.817980375E0,6.032904510E0,-2.284399567E0,8.428073730E0,1.061352180E1
5.827939375E0,6.111640778E0,-2.340532837E0,8.542435913E0,1.076120153E1
5.837898375E0,6.013894043E0,-2.421664124E0,8.617729340E0,1.078409188E1
5.847857375E0,6.138135681E0,-2.284998322E0,8.749156036E0,1.092911974E1
5.857816375E0,6.344257050E0,-1.992057495E0,8.904083862E0,1.111308238E1
5.867775375E0,6.647526398E0,-1.624421997E0,9.169781342E0,1.144173256E1
5.877734375E0,6.879094849E0,-1.106798401E0,9.359886017E0,1.166852240E1
5.887693375E0,7.036417694E0,-6.893165588E-1,9.482930145E0,1.182845279E1
5.897652375E0,7.077731781E0,-3.945794678E-1,9.551487579E0,1.189457419E1
5.907611375E0,7.174730072E0,-1.812730408E-1,9.578581238E0,1.196907808E1
5.917570375E0,7.345524902E0,-1.336720276E-1,9.596244507E0,1.208563250E1
5.927529375E0,7.455995178E0,1.264869690E-1,9.798473969E0,1.231332429E1
5.937488375E0,7.366481323E0,5.662724304E-1,1.022823029E1,1.261754359E1
5.947447375E0,7.453001404E0,8.464897156E-1,1.058553726E1,1.297371858E1
5.957406375E0,7.634274445E0,1.156195679E0,1.064586182E1,1.315117138E1
5.967365375E0,7.382797394E0,1.510658569E0,1.040665924E1,1.284859304E1
5.977324375E0,6.828200684E0,1.630559235E0,1.026146118E1,1.243304603E1
5.987283375E0,6.288572845E0,1.613943787E0,1.031475037E1,1.218790540E1
5.997242375E0,5.743107147E0,1.727108459E0,1.034184402E1,1.195491201E1
6.007201375E0,5.343138885E0,1.827549591E0,1.060484711E1,1.201465159E1
6.017160375E0,5.051694946E0,1.928140411E0,1.078881454E1,1.206796862E1
6.027119375E0,4.855752411E0,1.997446289E0,1.095766342E1,1.215065886E1
6.037077375E0,4.626878357E0,2.148182831E0,1.129551086E1,1.239400091E1
6.047036375E0,4.287384338E0,2.450104980E0,1.150432663E1,1.251935342E1
6.056995375E0,3.750750275E0,2.805016937E0,1.169697601E1,1.259982125E1
6.066954375E0,2.996618500E0,3.100053406E0,1.197614548E1,1.272863363E1
6.076913375E0,2.362686768E0,3.249442749E0,1.219828354E1,1.284286916E1
6.086872375E0,1.970502319E0,3.482508087E0,1.241892471E1,1.304762174E1
6.096831375E0,1.736987915E0,3.804937592E0,1.258672577E1,1.326349662E1
6.106790375E0,1.546583862E0,3.914509735E0,1.283086807E1,1.350357299E1
6.116749375E0,1.266516266E0,3.880979462E0,1.298175430E1,1.360852710E1
6.126708375E0,8.728349304E-1,3.869303741E0,1.308578796E1,1.367374122E1
6.136667375E0,5.457650757E-1,3.770209808E0,1.320733521E1,1.374576461E1
6.146626375E0,8.831634521E-3,3.693868561E0,1.290915527E1,1.342724964E1
6.156585375E0,-2.429447937E-1,3.620820465E0,1.261965729E1,1.313107433E1
6.166544375E0,-5.191204834E-1,3.488345947E0,1.251262985E1,1.300015190E1
6.176503375E0,-8.547225952E-1,3.332969055E0,1.248239273E1,1.294794817E1
6.186462375E0,-1.063987427E0,3.013683014E0,1.238374786E1,1.278950999E1
6.196421375E0,-1.304986267E0,2.785108337E0,1.212748077E1,1.251141909E1
6.206380375E0,-1.563348999E0,2.708617401E0,1.183513870E1,1.224137151E1
6.216339375E0,-1.765728149E0,2.478246460E0,1.177122162E1,1.215817255E1
6.226298375E0,-1.893262939E0,2.300865326E0,1.187151306E1,1.223974053E1
6.236257375E0,-1.912123718E0,2.153721313E0,1.196596664E1,1.230768420E1
6.246216375E0,-1.746867371E0,1.985770569E0,1.196312256E1,1.225198481E1
6.256174375E0,-1.507066040E0,1.894011383E0,1.168290527E1,1.193100175E1
6.266132875E0,-1.419348450E0,1.879790955E0,1.131676666E1,1.155929806E1
6.276091875E0,-1.368903351E0,1.902543640E0,1.105750580E1,1.130318553E1
6.286050875E0,-1.402733002E0,1.899100800E0,1.088177124E1,1.113495348E1
6.296009875E0,-1.640139313E0,1.795067139E0,1.086889801E1,1.113756109E1
6.305968875E0,-1.953138428E0,1.447340240E0,1.099284027E1,1.125842266E1
6.315927875E0,-2.364333344E0,1.247356110E0,1.029050079E1,1.063204477E1
6.325886875E0,-2.108066254E0,8.649014282E-1,9.826765137E0,1.008748288E1
6.335845875E0,-1.571282501E0,5.709127808E-1,1.027268784E1,1.040783289E1
6.345804875E0,-1.289718018E0,7.975415039E-1,1.001627106E1,1.013040626E1
6.355763875E0,-6.560856628E-1,7.990383911E-1,1.000205063E1,1.005534323E1
6.365722875E0,-7.479945374E-1,5.673202515E-1,9.948312378E0,9.992510559E0
6.375681875E0,-8.065228271E-1,-2.065704346E-2,9.855505371E0,9.888472678E0
6.385640875E0,-8.210426331E-1,-5.388793945E-1,9.773326263E0,9.822545915E0
6.395599875E0,-8.033793640E-1,-8.717871094E-1,9.594897308E0,9.667858373E0
6.405558875E0,-4.360432434E-1,-1.011446686E0,9.474996643E0,9.538800737E0
6.415517875E0,4.939727783E-2,-9.939331055E-1,9.359586639E0,9.412343235E0
6.425476875E0,6.111790466E-1,-9.774673462E-1,9.075028381E0,9.147957278E0
6.435435875E0,9.512718201E-1,-9.629475403E-1,8.794362030E0,8.897920519E0
6.445394875E0,1.098864899E0,-1.154249725E0,8.662336578E0,8.807716588E0
6.455353875E0,1.248553619E0,-1.439406738E0,8.487051086E0,8.698322484E0
6.465312875E0,1.463356934E0,-1.829345856E0,8.298742676E0,8.623053390E0
6.475271875E0,1.669029236E0,-2.232158203E0,8.084837494E0,8.551770936E0
6.485229875E0,1.688039703E0,-2.331701202E0,7.730075226E0,8.248658772E0
6.495188875E0,1.759590912E0,-2.420316925E0,7.550149384E0,8.121505397E0
6.505147875E0,1.949096832E0,-2.641257477E0,7.619604950E0,8.296601661E0
6.515106875E0,2.163750458E0,-2.656226349E0,7.728877716E0,8.454164962E0
6.525065875E0,2.717449036E0,-2.746788025E0,7.977360992E0,8.863840145E0
6.535024875E0,3.293451233E0,-2.754272461E0,8.231083374E0,9.283510722E0
6.544983875E0,3.808530121E0,-2.675386505E0,8.327632599E0,9.540024074E0
6.554942875E0,4.297413483E0,-2.625989227E0,8.284971313E0,9.695583104E0
6.564901875E0,4.669539642E0,-2.589614868E0,8.280480652E0,9.852769431E0
6.574860875E0,4.832400970E0,-2.627635803E0,8.266409912E0,9.929254851E0
6.584819875E0,4.900209961E0,-2.662513275E0,8.316855011E0,1.001354642E1
6.594778875E0,5.092709656E0,-2.743345184E0,8.347241821E0,1.015569202E1
6.604737875E0,5.406307526E0,-2.787653046E0,8.316106567E0,1.030324216E1
6.614696875E0,5.832920380E0,-2.634970551E0,8.351732483E0,1.052223671E1
6.624655875E0,6.067332916E0,-2.482737122E0,8.506510620E0,1.073951746E1
6.634614875E0,6.122268677E0,-2.232008514E0,8.710236969E0,1.087806342E1
6.644573875E0,6.338568878E0,-1.920057220E0,8.877738647E0,1.107602450E1
6.654532875E0,6.710695038E0,-1.755998383E0,9.073531494E0,1.142129292E1
6.664491875E0,7.106771393E0,-1.520088959E0,9.169631653E0,1.170038524E1
6.674450875E0,7.365732880E0,-1.238075409E0,9.249715118E0,1.188882170E1
6.684409875E0,7.540419617E0,-8.801696777E-1,9.343120880E0,1.203854370E1
6.694367875E0,7.632328491E0,-4.302053833E-1,9.507030029E0,1.219922681E1
6.704326875E0,7.734116821E0,-1.475930786E-1,9.753567352E0,1.244871169E1
6.714285875E0,7.738158417E0,-1.317260742E-2,9.928254089E0,1.258767248E1
6.724244875E0,7.483388214E0,7.185058594E-3,1.014650024E1,1.260764125E1
6.734203875E0,7.177274780E0,1.106199646E-1,1.044827271E1,1.267643138E1
6.744162875E0,6.986721039E0,1.842668152E-1,1.071232361E1,1.279070374E1
6.754121875E0,6.901099091E0,4.788542175E-1,1.089404572E1,1.290483251E1
6.764080875E0,6.884184265E0,1.049617310E0,1.099373840E1,1.301368409E1
6.774039875E0,6.834786987E0,1.578168182E0,1.101155136E1,1.305600212E1
6.783998875E0,6.585854645E0,1.863474884E0,1.097442856E1,1.293383556E1
6.793957875E0,6.125561829E0,1.904339905E0,1.102562210E1,1.275591474E1
6.803916875E0,5.552403717E0,1.907483368E0,1.119267471E1,1.263897334E1
6.813875875E0,5.057682495E0,1.792522430E0,1.132290390E1,1.253002161E1
6.823834875E0,4.387226715E0,1.692380676E0,1.158905045E1,1.250671823E1
6.833793875E0,4.048481140E0,1.852397919E0,1.183873123E1,1.264820678E1
6.843752875E0,3.805087280E0,1.898651733E0,1.198243240E1,1.271464722E1
6.853711875E0,3.499572601E0,1.879341888E0,1.194081894E1,1.258420006E1
6.863670875E0,2.867586823E0,1.796863403E0,1.192824509E1,1.239898396E1
6.873629875E0,1.638043671E0,1.826052704E0,1.179202835E1,1.204448372E1
6.883588875E0,6.256988525E-1,1.980830841E0,1.204694824E1,1.222473525E1
6.893547875E0,2.013313293E-1,2.204914856E0,1.223001755E1,1.242881785E1
6.903505875E0,4.363426208E-1,2.647544403E0,1.204275696E1,1.233806636E1
6.913464875E0,5.800437927E-1,2.871628418E0,1.224857895E1,1.259406157E1
6.923423875E0,8.390052795E-1,2.430944824E0,1.285167480E1,1.310644757E1
6.933382875E0,5.966592407E-1,2.210153961E0,1.311901886E1,1.331726093E1
6.943341875E0,-5.092410278E-1,2.165397034E0,1.312665298E1,1.331380071E1
6.953300875E0,-1.084943848E0,1.823058929E0,1.310404999E1,1.327466659E1
6.963259875E0,-1.342857513E0,1.253343658E0,1.281634827E1,1.294731322E1
6.973218875E0,-1.259480896E0,7.647596741E-1,1.245305374E1,1.253992412E1
6.983177875E0,-6.185137939E-1,7.695497131E-1,1.238719070E1,1.242647414E1
6.993136875E0,-1.919009399E-1,1.227148132E0,1.208137665E1,1.214505579E1
7.003095875E0,-6.556365967E-1,1.830992432E0,1.119821320E1,1.136584231E1
7.013054875E0,-8.602610779E-1,2.046095123E0,1.037417679E1,1.060896312E1
7.023013875E0,-2.486329651E-1,1.889071655E0,9.798923035E0,9.982449735E0
7.032972875E0,2.329156494E-1,1.846110992E0,9.338630219E0,9.522205094E0
7.042931875E0,2.333647156E-1,1.792522430E0,9.312734070E0,9.486548983E0
7.052890875E0,-7.364685059E-2,1.651665344E0,9.670939178E0,9.811242881E0
7.062849875E0,-3.830534363E-1,1.812580719E0,1.041579025E1,1.057926582E1
7.072808875E0,5.426216125E-1,2.406096497E0,1.127784760E1,1.154441791E1
7.082767875E0,1.724264374E0,2.933749237E0,1.159428955E1,1.208335725E1
7.092726875E0,2.197280731E0,2.926713867E0,1.126736938E1,1.184682698E1
7.102685875E0,2.400258636E0,2.677631836E0,1.080108902E1,1.138395704E1
7.112643875E0,2.198328552E0,2.093546448E0,1.043075912E1,1.086353170E1
7.122602875E0,2.032922516E0,1.650617523E0,9.954299927E0,1.029297815E1
7.132561875E0,2.008523254E0,1.550326080E0,9.542655945E0,9.874206758E0
7.142520875E0,1.736688538E0,1.312171326E0,9.043144684E0,9.301416367E0
7.152479875E0,1.472038879E0,1.031654663E0,8.363857269E0,8.554841800E0
7.162438875E0,1.404678955E0,1.014290771E0,7.873626709E0,8.062003863E0
7.172397875E0,1.232387238E0,1.090781708E0,7.724237366E0,7.897621536E0
7.182356875E0,1.343456268E0,1.243015137E0,8.343948669E0,8.542332279E0
7.192315875E0,1.951192474E0,1.623823242E0,9.451046448E0,9.786022325E0
7.202274875E0,2.728226624E0,2.066752167E0,9.805359650E0,1.038555549E1
7.212233875E0,3.455115051E0,2.006577301E0,9.795929260E0,1.057943300E1
7.222192875E0,3.463497620E0,1.815125427E0,9.513466644E0,1.028574468E1
7.232151875E0,2.714754639E0,1.609752502E0,9.206754456E0,9.732703811E0
7.242110875E0,1.851350098E0,1.312770081E0,9.048982544E0,9.329252250E0
7.252069875E0,1.310674438E0,1.017434235E0,9.006920013E0,9.158474111E0
7.262028917E0,1.257684631E0,1.013991394E0,8.971443787E0,9.115742032E0
7.271987917E0,1.492246857E0,1.278491364E0,9.112749939E0,9.322207480E0
7.281946917E0,2.265389099E0,1.508862305E0,9.348659363E0,9.736841639E0
7.291905917E0,3.344046021E0,1.756447449E0,9.378148041E0,1.011026271E1
7.301863917E0,3.768263855E0,2.068548431E0,8.591084747E0,9.606531228E0
7.311822917E0,4.010759583E0,2.189347229E0,7.743996277E0,8.991602307E0
7.321781917E0,3.585194550E0,2.111060028E0,6.866221619E0,8.028399200E0
7.331740917E0,2.875670013E0,2.044897614E0,6.667434998E0,7.543591567E0
7.341699917E0,2.176024933E0,1.918710022E0,7.140002289E0,7.706890770E0
7.351658917E0,2.081271973E0,1.934277649E0,8.001311188E0,8.490824681E0
7.361617917E0,2.387684784E0,2.279310150E0,8.735384674E0,9.338267441E0
7.371576917E0,2.868035889E0,2.474354553E0,9.219178619E0,9.967011324E0
7.381535917E0,3.197351074E0,2.564018097E0,9.409432983E0,1.026326808E1
7.391494917E0,3.063529358E0,2.585423584E0,9.373208313E0,1.019444267E1
7.401453917E0,2.601140900E0,2.562521210E0,9.334738312E0,1.002346189E1
7.411412917E0,2.215542755E0,2.636617126E0,9.466614075E0,1.007358733E1
7.421371917E0,2.187101898E0,2.801574097E0,9.805509338E0,1.042977687E1
7.431330917E0,2.493814087E0,2.901117096E0,9.880353699E0,1.059513937E1
7.441289917E0,3.014132080E0,2.849474487E0,9.523346100E0,1.038742596E1
7.451248917E0,3.171903992E0,2.667752380E0,8.987610168E0,9.897222552E0
7.461207917E0,2.740800476E0,2.524949341E0,8.272397461E0,9.073032358E0
7.471166917E0,2.340832214E0,2.434537354E0,7.693850555E0,8.402487962E0
7.481125917E0,2.069596252E0,2.333347778E0,7.454049225E0,8.080259300E0
7.491084917E0,1.938319244E0,2.424059143E0,7.626041565E0,8.233447284E0
7.501042917E0,1.918111267E0,2.629581757E0,8.167166290E0,8.791840323E0
7.511001917E0,2.087558899E0,2.863545227E0,8.700656891E0,9.394638032E0
7.520960917E0,2.373015289E0,3.102747803E0,8.915759583E0,9.733910541E0
7.530919917E0,2.451302490E0,3.160976715E0,8.856033783E0,9.717509560E0
7.540878917E0,2.216440887E0,3.003204803E0,8.635242920E0,9.407405040E0
7.550837917E0,2.038161621E0,2.846780090E0,8.417595520E0,9.116697539E0
7.560796917E0,1.911824341E0,2.816393280E0,8.188272400E0,8.867634877E0
7.570755917E0,1.689835968E0,2.752925262E0,8.343798981E0,8.947241169E0
7.580714917E0,1.784738617E0,2.894979858E0,8.568032684E0,9.218317872E0
7.590673917E0,2.033072205E0,3.045267334E0,8.736133118E0,9.472436728E0
7.600632917E0,2.142794037E0,3.104095001E0,9.025930481E0,9.782351103E0
7.610591917E0,2.091151428E0,3.090623016E0,8.948092346E0,9.695010137E0
7.620550917E0,2.281405792E0,3.077899475E0,8.866811371E0,9.659121153E0
7.630509917E0,2.335742798E0,3.073708191E0,8.736582184E0,9.551504840E0
7.640468917E0,2.209854584E0,2.964435425E0,8.889863434E0,9.628136193E0
7.650427917E0,2.122735748E0,3.061583405E0,8.971743164E0,9.714498206E0
7.660386917E0,2.260299683E0,3.172502747E0,8.872798920E0,9.690216148E0
7.670345917E0,2.303859100E0,3.136577454E0,8.718619537E0,9.547785686E0
7.680304917E0,2.296224976E0,3.187621307E0,9.067993011E0,9.882412458E0
7.690262917E0,2.353705444E0,3.291505280E0,9.154812469E0,1.000922213E1
7.700221917E0,2.200723572E0,3.165018311E0,9.529633026E0,1.027980694E1
7.710180917E0,2.253414001E0,3.293900299E0,9.798174591E0,1.057978635E1
7.720139917E0,2.292183380E0,3.395089874E0,9.770482178E0,1.059448262E1
7.730098917E0,2.161804504E0,3.478466492E0,9.757758636E0,1.058239016E1
7.740057917E0,2.088756409E0,3.588787079E0,1.014799713E1,1.096467700E1
7.750016917E0,2.049388275E0,3.677253113E0,1.045665527E1,1.127225897E1
7.759975917E0,2.120789795E0,3.643722839E0,1.028870453E1,1.111898855E1
7.769934917E0,2.071542206E0,3.609144745E0,1.006447083E1,1.089085790E1
7.779893917E0,1.790875854E0,3.518283691E0,9.770033112E0,1.053750936E1
7.789852917E0,1.391656036E0,3.356320496E0,9.270671539E0,9.957255876E0