"Time (s)","Acceleration x (m/s^2)","Acceleration y (m/s^2)","Acceleration z (m/s^2)","Absolute acceleration (m/s^2)"
2.069333335E-3,-1.945055237E0,3.450923767E0,8.963061218E0,9.799417387E0
1.202833332E-2,-1.899250488E0,3.340303802E0,9.080716553E0,9.860233010E0
2.198733331E-2,-1.789977722E0,3.293451233E0,9.311386871E0,1.003756777E1
3.194633330E-2,-1.755249939E0,3.396137695E0,9.512718201E0,1.025214422E1
4.190533335E-2,-1.654958496E0,3.464096375E0,9.574689331E0,1.031569324E1
5.186333333E-2,-1.442101135E0,3.549868011E0,9.548493805E0,1.028858360E1
6.182233331E-2,-1.401535492E0,3.680246887E0,9.415121155E0,1.020553895E1
7.178133330E-2,-1.417402496E0,3.742218018E0,9.129215698E0,9.967738198E0
8.174033335E-2,-1.270707550E0,3.691623230E0,8.849746857E0,9.672683143E0
9.169933334E-2,-1.210382996E0,3.611390076E0,8.785530396E0,9.575631029E0
1.016583333E-1,-1.471589813E0,3.649710388E0,9.043743439E0,9.862822004E0
1.116173333E-1,-1.532363434E0,3.740272064E0,9.550888824E0,1.037098116E1
1.215763333E-1,-1.172212372E0,3.825744324E0,9.945767670E0,1.072048021E1
1.315343333E-1,-8.011340332E-1,4.063150635E0,9.819729767E0,1.065730273E1
1.414933333E-1,-6.078858948E-1,4.318519592E0,9.306147766E0,1.027733054E1
1.514523333E-1,-1.453477478E-1,4.277355194E0,8.621621246E0,9.625447851E0
1.614113333E-1,-1.182540894E-1,4.012106781E0,8.173453217E0,9.105840013E0
1.713703334E-1,-8.168513489E-1,3.776945801E0,8.353828125E0,9.204293023E0
1.813293333E-1,-1.559008026E0,3.475772095E0,8.615933075E0,9.420498948E0
1.912883333E-1,-1.399140472E0,3.299887848E0,8.408913574E0,9.140934382E0
2.012473333E-1,-5.569917297E-1,3.181484070E0,8.246950378E0,8.856877058E0
2.112063333E-1,1.059796143E-1,3.258274384E0,8.390651550E0,9.001700788E0
2.211643333E-1,2.779719543E-1,3.544778595E0,8.809779968E0,9.500260353E0
2.311233333E-1,2.643502808E-1,3.801644440E0,9.355994110E0,1.010232683E1
2.410823333E-1,8.211923218E-1,3.812122650E0,9.865833893E0,1.060854912E1
2.510413333E-1,1.274599457E0,3.735032959E0,1.022538620E1,1.096054734E1
2.610003334E-1,1.214873657E0,3.841162262E0,1.026655060E1,1.102871283E1
2.709593333E-1,1.040785675E0,4.137994995E0,1.009680359E1,1.096137218E1
2.809183333E-1,8.295748901E-1,4.268523560E0,9.957144012E0,1.086522916E1
2.908773333E-1,1.071621552E0,4.220174103E0,9.699080658E0,1.063157598E1
3.008353333E-1,1.535357208E0,4.051774292E0,9.858499146E0,1.076866761E1
3.107943333E-1,1.303788757E0,4.099674683E0,9.921218719E0,1.081377725E1
3.207533333E-1,1.386416931E0,4.209845581E0,9.897717590E0,1.084480360E1
3.307123333E-1,1.403780823E0,4.264481964E0,9.906249847E0,1.087612951E1
3.406713333E-1,1.473236389E0,4.280648346E0,9.958940277E0,1.093960087E1
3.506303333E-1,1.481918335E0,4.093387756E0,9.369915161E0,1.033185440E1
3.605893333E-1,9.416917419E-1,4.437073059E0,7.064708862E0,8.395505463E0
3.705483333E-1,1.776805115E0,4.856949921E0,8.382418671E0,9.849464032E0
3.805073333E-1,2.245181122E0,5.111420746E0,9.453890533E0,1.097923069E1
3.904653333E-1,2.836002502E0,5.263504486E0,1.003887405E1,1.168445043E1
4.004243333E-1,3.233875122E0,5.027595062E0,1.023272095E1,1.185087501E1
4.103833333E-1,2.941682739E0,4.989873505E0,1.003752686E1,1.158897236E1
4.203423333E-1,2.845432892E0,5.379363556E0,9.678573303E0,1.143279589E1
4.303013333E-1,3.164120178E0,5.615722046E0,9.710307312E0,1.165495855E1
4.402603333E-1,3.632645874E0,5.770649872E0,9.928104401E0,1.204424232E1
4.502193333E-1,4.032913513E0,5.942642212E0,9.874366150E0,1.220993426E1
4.601783333E-1,4.524341583E0,5.885910187E0,9.322164459E0,1.191706154E1
4.701363333E-1,4.668491821E0,5.847290497E0,8.681945801E0,1.146131777E1
4.800953333E-1,4.742737427E0,5.886059875E0,8.420439606E0,1.131561144E1
4.900543333E-1,5.045857086E0,5.892646179E0,8.570278015E0,1.156000078E1
5.000133333E-1,5.631289673E0,6.035149841E0,8.740623779E0,1.202218620E1
5.099723333E-1,5.979914703E0,6.240373077E0,8.820856934E0,1.234945963E1
5.199313333E-1,6.061345367E0,6.718329163E0,8.724307709E0,1.256938341E1
5.298903333E-1,6.024821320E0,7.036118317E0,9.005273438E0,1.291899309E1
5.398493333E-1,5.951024780E0,7.191345520E0,9.334888000E0,1.320114693E1
5.498083333E-1,5.894741821E0,7.315736847E0,9.241781616E0,1.317871444E1
5.597663333E-1,5.844147034E0,7.528893585E0,8.835975494E0,1.299664403E1
5.697253333E-1,5.630541229E0,7.759114838E0,8.751101990E0,1.298031755E1
5.796843334E-1,5.610632629E0,8.235424347E0,8.839418335E0,1.332053787E1
5.896433333E-1,5.795797577E0,8.837622070E0,8.871451721E0,1.379845966E1
5.996023333E-1,5.794151001E0,9.373807068E0,9.097930756E0,1.429030401E1
6.095613333E-1,5.382656708E0,9.478439484E0,9.639953613E0,1.455137498E1
6.195203333E-1,4.560715942E0,9.363328857E0,1.015787659E1,1.454835090E1
6.294793334E-1,4.110003204E0,9.239386597E0,1.031534912E1,1.444523515E1
6.394373333E-1,3.724854126E0,9.232051849E0,1.014560211E1,1.421402694E1
6.493963333E-1,2.939587097E0,9.425449677E0,1.020981857E1,1.420284018E1
6.593553333E-1,2.123184814E0,9.436676331E0,1.047192352E1,1.425552371E1
6.693143333E-1,1.538350983E0,9.465865631E0,1.020143600E1,1.400137252E1
6.792733333E-1,9.256750488E-1,9.632469177E0,9.720635834E0,1.371612546E1
6.892323333E-1,3.097059631E-1,9.653126221E0,9.713301086E0,1.369769987E1
6.991913333E-1,-9.699829102E-2,9.726174316E0,9.555080109E0,1.363478754E1
7.091503333E-1,-8.801696777E-2,9.860145721E0,9.156608734E0,1.345636296E1
7.191083333E-1,-2.908451843E-1,9.972262573E0,9.082213440E0,1.349137549E1
7.290673333E-1,-6.758445740E-1,9.962532806E0,9.123078461E0,1.352550873E1
7.390263333E-1,-7.545808411E-1,9.748328247E0,8.790021057E0,1.314776658E1
7.489853333E-1,-1.050365753E0,9.629625092E0,8.302634583E0,1.275800488E1
7.589443333E-1,-1.977537689E0,9.355245667E0,8.110434265E0,1.253835798E1
7.689033333E-1,-2.881657562E0,8.827143860E0,7.910599823E0,1.219836090E1
7.788623333E-1,-3.539389801E0,8.371341705E0,7.379055176E0,1.170713874E1
7.888213333E-1,-3.988156586E0,8.096064148E0,6.686146088E0,1.123192758E1
7.987803333E-1,-4.308939514E0,7.918683014E0,6.030210114E0,1.084601007E1
8.087383333E-1,-4.427642670E0,7.713609467E0,5.480104065E0,1.044678569E1
8.186973333E-1,-4.433480530E0,7.465575256E0,4.856949921E0,9.948895720E0
8.286563333E-1,-4.513264618E0,7.251520386E0,4.077670441E0,9.464750479E0
8.386153333E-1,-4.699776764E0,7.223079529E0,3.421285400E0,9.271783717E0
8.485743333E-1,-4.922663269E0,7.169490967E0,3.099604340E0,9.232646503E0
8.585333333E-1,-4.993915100E0,6.945107574E0,2.965632935E0,9.053655944E0
8.684923333E-1,-4.960983582E0,6.730304260E0,2.662513275E0,8.774812276E0
8.784513333E-1,-4.820425873E0,6.589447174E0,2.176174622E0,8.449441144E0
8.884093333E-1,-4.669090576E0,6.442452850E0,1.682351532E0,8.132398921E0
8.983683333E-1,-4.673431549E0,6.307134247E0,1.136137390E0,7.931690426E0
9.083273333E-1,-4.573888550E0,6.233487396E0,6.641688538E-1,7.760022026E0
9.182863333E-1,-4.374054108E0,6.161187744E0,2.323168945E-1,7.559534040E0
9.282453333E-1,-4.309687958E0,5.980064392E0,8.532257080E-3,7.371204327E0
9.382043333E-1,-4.409380646E0,5.765261078E0,5.703140259E-2,7.258383123E0
9.481633333E-1,-4.526137848E0,5.545068970E0,1.830693054E-1,7.160113691E0
9.581219583E-1,-4.350852356E0,5.443430328E0,2.528242493E-1,6.973146353E0
9.680799583E-1,-3.852688293E0,5.498066711E0,1.811233521E-2,6.713588661E0
9.780389583E-1,-3.351231079E0,5.566624146E0,-1.718426514E-1,6.499814153E0
9.879979583E-1,-3.075055389E0,5.502856750E0,-2.170486450E-1,6.307496189E0
9.979569583E-1,-2.936593323E0,5.407654724E0,-2.080673218E-1,6.157077389E0
1.007915958E0,-2.696642303E0,5.277724915E0,-2.815644836E-1,5.933425532E0
1.017874958E0,-2.438129883E0,5.134772186E0,-5.734574890E-1,5.713074148E0
1.027833958E0,-2.199376373E0,5.070106659E0,-8.818162537E-1,5.596502289E0
1.037792958E0,-2.098186798E0,4.956642609E0,-1.059347076E0,5.485700504E0
1.047751958E0,-1.747915192E0,4.856351166E0,-1.171613617E0,5.292639477E0
1.057709958E0,-1.310524750E0,4.757855988E0,-1.219963074E0,5.083598983E0
1.067668958E0,-9.171427917E-1,4.591701508E0,-1.230740662E0,4.841445674E0
1.077627958E0,-5.408253479E-1,4.555776215E0,-1.339863739E0,4.779416681E0
1.087586958E0,-2.553689575E-1,4.810546417E0,-1.066831512E0,4.934034821E0
1.097545958E0,-1.616638184E-1,4.952601013E0,-2.995271301E-1,4.964283280E0
1.107504958E0,-1.204994202E-1,4.907245331E0,3.960763550E-1,4.924677992E0
1.117463958E0,8.217910767E-2,4.738995209E0,5.261558533E-1,4.768822599E0
1.127422958E0,4.140390015E-1,4.533173218E0,3.026705933E-1,4.562093511E0
1.137380958E0,7.337741089E-1,4.463567963E0,-8.053253174E-2,4.524195938E0
1.147339958E0,1.095422058E0,4.461023254E0,-1.377136230E-1,4.595611276E0
1.157298958E0,1.405876465E0,4.364474030E0,3.414399719E-1,4.598010814E0
1.167257958E0,1.653910675E0,4.375700684E0,8.084687805E-1,4.747188511E0
1.177216958E0,1.729802856E0,4.378844147E0,1.348845062E0,4.897537849E0
1.187175958E0,1.808988190E0,4.302652588E0,1.820065155E0,5.009779908E0
1.197134958E0,2.258802795E0,4.242178345E0,2.050735474E0,5.225302208E0
1.207093958E0,2.948119354E0,4.245471497E0,1.936073914E0,5.519403786E0
1.217052958E0,3.499722290E0,4.386029205E0,1.754202118E0,5.878990846E0
1.227010958E0,3.735182648E0,4.360582123E0,1.757644958E0,6.004630019E0
1.236969958E0,3.684438171E0,4.278702393E0,2.117346954E0,6.030384476E0
1.246928958E0,3.409160614E0,4.147126007E0,2.653082886E0,5.988311866E0
1.256887958E0,3.645219727E0,4.105961609E0,2.772235107E0,6.150758903E0
1.266846958E0,4.659660187E0,4.332290955E0,2.323618011E0,6.773505638E0
1.276805958E0,5.566773834E0,4.612657928E0,2.172282715E0,7.548800983E0
1.286764958E0,5.920637970E0,4.749024353E0,2.734812927E0,8.067613527E0
1.296723958E0,6.081403656E0,4.660109253E0,3.419638824E0,8.390114324E0
1.306681958E0,6.089037781E0,4.741988983E0,3.871698761E0,8.634401653E0
1.316640958E0,6.296955414E0,5.026696930E0,4.013603668E0,9.001574524E0
1.326599958E0,6.803502045E0,5.363346863E0,3.977528687E0,9.532778404E0
1.336558958E0,7.271578674E0,5.637426910E0,4.232747955E0,1.012781289E1
1.346517958E0,7.513625336E0,5.634732513E0,4.741539917E0,1.052078785E1
1.356476958E0,7.682474213E0,5.478906555E0,5.117258606E0,1.073429843E1
1.366435958E0,7.943231964E0,5.440137177E0,5.344486084E0,1.101151933E1
1.376394958E0,8.718619537E0,5.761967926E0,5.778283997E0,1.194165679E1
1.386352958E0,9.835447083E0,6.336173859E0,5.879473572E0,1.309394241E1
1.396311958E0,1.063119232E1,6.828500061E0,5.993686066E0,1.398481090E1
1.406270958E0,1.105436234E1,7.334897003E0,6.272855530E0,1.467475237E1
1.416229958E0,1.119402191E1,7.829618225E0,6.490652618E0,1.512407417E1
1.426188958E0,1.109298203E1,8.247549133E0,6.821764069E0,1.541469370E1
1.436147958E0,1.062969543E1,8.713530121E0,7.562573547E0,1.568784723E1
1.446106958E0,1.022014709E1,8.868008881E0,8.267308044E0,1.585690293E1
1.456065958E0,1.010683273E1,9.051227875E0,8.539741516E0,1.603121889E1
1.466023958E0,1.042701691E1,9.318422241E0,8.938961334E0,1.659700890E1
1.475982958E0,1.076830719E1,9.742490387E0,9.670789490E0,1.744696902E1
1.485941958E0,1.104702759E1,1.031864227E1,1.058104660E1,1.845182224E1
1.495900958E0,1.098161362E1,1.066846481E1,1.112591354E1,1.892611770E1
1.505859958E0,1.049018555E1,1.075872711E1,1.094044922E1,1.858729757E1
1.515818958E0,9.713001709E0,1.070094727E1,1.044048889E1,1.782853003E1
1.525777958E0,9.184450836E0,1.085572540E1,1.023481659E1,1.752005656E1
1.535736958E0,9.271719360E0,1.129790588E1,1.033840118E1,1.790223439E1
1.545695958E0,9.544901276E0,1.171059769E1,1.080034058E1,1.857123031E1
1.555653958E0,9.727970581E0,1.188513474E1,1.152633087E1,1.920276393E1
1.565612958E0,9.819430389E0,1.191192902E1,1.192106003E1,1.950453635E1
1.575571958E0,9.495653687E0,1.190758804E1,1.224154358E1,1.954004814E1
1.585530958E0,9.209149475E0,1.177795761E1,1.251068390E1,1.949476676E1
1.595489958E0,8.906927948E0,1.170206543E1,1.252385651E1,1.931628025E1
1.605448958E0,8.431217194E0,1.156345367E1,1.269989044E1,1.913337664E1
1.615407958E0,7.619754639E0,1.137993530E1,1.293864395E1,1.884070316E1
1.625366958E0,6.642137604E0,1.105975113E1,1.276934601E1,1.815192234E1
1.635324958E0,5.620961151E0,1.084659439E1,1.239991425E1,1.740694366E1
1.645283958E0,4.847369843E0,1.086949677E1,1.185534668E1,1.679857730E1
1.655242958E0,4.483476562E0,1.088895630E1,1.138951538E1,1.638267353E1
1.665201958E0,3.911965027E0,1.110046646E1,1.125943588E1,1.628799320E1
1.675160958E0,3.258573761E0,1.134026779E1,1.145223495E1,1.644304297E1
1.685119958E0,2.638413391E0,1.147932861E1,1.172586594E1,1.662023293E1
1.695078958E0,1.910926208E0,1.140193954E1,1.201701050E1,1.667526329E1
1.705037958E0,9.443861389E-1,1.125404709E1,1.222238342E1,1.664127692E1
1.714995958E0,-1.203497314E-1,1.095347214E1,1.245275436E1,1.658505735E1
1.724954958E0,-1.170116730E0,1.068867279E1,1.252729935E1,1.650909229E1
1.734913958E0,-2.074985046E0,1.042072998E1,1.220801331E1,1.618433703E1
1.744872958E0,-2.658471680E0,1.016610947E1,1.168125870E1,1.571206728E1
1.754831958E0,-2.782863007E0,9.974956970E0,1.114043335E1,1.521030402E1
1.764790958E0,-2.998414764E0,9.655371552E0,1.068463120E1,1.470979384E1
1.774749958E0,-3.553610229E0,9.342971191E0,1.039408539E1,1.442068887E1
1.784708958E0,-4.093986511E0,8.911268921E0,1.026280838E1,1.419495245E1
1.794666958E0,-4.670587463E0,8.474776611E0,9.846673737E0,1.380554995E1
1.804625958E0,-5.107379150E0,8.162975006E0,9.146130524E0,1.328048140E1
1.814584958E0,-5.260061646E0,7.899522858E0,8.451724548E0,1.270835779E1
1.824543958E0,-5.506299591E0,7.637866974E0,7.819140015E0,1.223908892E1
1.834502958E0,-6.018534393E0,7.376809845E0,7.211403809E0,1.194338414E1
1.844461958E0,-6.467151489E0,7.016958160E0,6.512207794E0,1.155294770E1
1.854420958E0,-6.698270874E0,6.703060913E0,5.723647614E0,1.107059169E1
1.864379958E0,-6.936874695E0,6.423143005E0,5.034929810E0,1.071109307E1
1.874338958E0,-7.035519562E0,6.173611908E0,4.302502899E0,1.030162855E1
1.884296958E0,-7.068451080E0,6.064788208E0,3.593128052E0,9.982746410E0
1.894255958E0,-7.173382874E0,5.907764740E0,3.092718658E0,9.794080599E0
1.904214958E0,-7.252268829E0,5.832770691E0,2.688858490E0,9.687444301E0
1.914173958E0,-7.283254395E0,5.783523102E0,2.318977661E0,9.585019115E0
1.924132958E0,-7.167395325E0,5.727838898E0,1.867217102E0,9.363022690E0
1.934091958E0,-7.182663574E0,5.663173370E0,1.441951447E0,9.259665902E0
1.944050958E0,-7.284451904E0,5.453609161E0,1.060993652E0,9.161375440E0
1.954010458E0,-7.278314667E0,5.192552032E0,6.637197876E-1,8.965321241E0
1.963968458E0,-7.269183655E0,4.976700897E0,2.616558838E-1,8.813458267E0
1.973927458E0,-7.343578949E0,4.893174591E0,-1.151106262E-1,8.825222933E0
1.983886458E0,-7.460036774E0,4.833748169E0,-3.745211792E-1,8.897052104E0
1.993845458E0,-7.682174835E0,4.771028595E0,-5.578898621E-1,9.060340234E0
2.003804458E0,-7.845934296E0,4.590803375E0,-4.989125061E-1,9.104014186E0
2.013763458E0,-7.723039856E0,4.441264343E0,-4.647834778E-1,8.921109643E0
2.023722458E0,-7.217690735E0,4.312532043E0,-5.695655823E-1,8.427182039E0
2.033681458E0,-6.383325806E0,4.324656830E0,-7.897576904E-1,7.750691727E0
2.043639458E0,-5.611081696E0,4.305945740E0,-1.003962250E0,7.143762783E0
2.053598458E0,-4.939727783E0,4.199367371E0,-1.096918945E0,6.575623777E0
2.063557458E0,-4.366120605E0,3.978576508E0,-1.089733887E0,6.006629680E0
2.073516458E0,-3.878285065E0,3.827540588E0,-9.174421692E-1,5.525654905E0
2.083475458E0,-3.537294159E0,3.695365448E0,-6.480024719E-1,5.156363347E0
2.093434458E0,-3.026256866E0,3.538791046E0,-3.152444458E-1,4.666974582E0
2.103393458E0,-2.282154236E0,3.504362640E0,-2.055226135E-1,4.187006689E0
2.113352458E0,-1.551822968E0,3.320694580E0,-3.827540588E-1,3.685331421E0
2.123310458E0,-7.587721252E-1,3.030597839E0,-4.216731262E-1,3.152469925E0
2.133269458E0,-6.182144165E-2,2.823129272E0,-2.598596191E-1,2.835737612E0
2.143228458E0,4.486170959E-1,2.724634094E0,-2.757266235E-1,2.775051967E0
2.153187458E0,7.945477295E-1,2.480791168E0,-1.781295776E-1,2.611007672E0
2.163146458E0,1.030307465E0,2.097737732E0,1.465452576E-1,2.341690111E0
2.173105458E0,1.364263000E0,1.859283600E0,5.848338318E-1,2.379113207E0
2.183064458E0,2.216291199E0,1.769470367E0,1.412313080E0,3.168217211E0
2.193022458E0,3.382516022E0,1.745969238E0,2.117346954E0,4.355798588E0
2.202981458E0,4.043541412E0,1.792372742E0,2.411335602E0,5.037595318E0
2.212940458E0,4.154909821E0,1.907782745E0,2.730022888E0,5.325029163E0
2.222899458E0,3.933370514E0,1.765877838E0,3.309617615E0,5.435374586E0
2.232858458E0,3.833827515E0,1.537303162E0,4.219874725E0,5.904987478E0
2.242817458E0,4.485123138E0,1.429826660E0,5.006788330E0,6.872311345E0
2.252776458E0,5.890550537E0,1.769170990E0,4.988526306E0,7.919213744E0
2.262735458E0,7.189100189E0,2.397713928E0,4.575535126E0,8.852554168E0
2.272693458E0,7.853418732E0,2.979404297E0,4.596940613E0,9.575223169E0
2.282652458E0,7.930508423E0,3.432512054E0,5.049299927E0,1.000852300E1
2.292611458E0,8.387208710E0,3.882326660E0,5.591622162E0,1.080203539E1
2.302570458E0,8.657097473E0,4.157903595E0,6.098917236E0,1.137674340E1
2.312529458E0,8.351582794E0,4.287534027E0,6.447691956E0,1.138879338E1
2.322488458E0,8.075107727E0,4.142036591E0,6.449787598E0,1.113389384E1
2.332447458E0,8.175848236E0,3.839665375E0,6.211333466E0,1.096212516E1
2.342406458E0,8.669371948E0,3.562890930E0,5.844446411E0,1.104580262E1
2.352364458E0,9.205257568E0,3.800147552E0,5.648803253E0,1.144931729E1
2.362323458E0,9.653575287E0,4.360582123E0,6.052064667E0,1.219974094E1
2.372282458E0,1.005938141E1,4.803960114E0,6.932533722E0,1.312742210E1
2.382241458E0,1.002061203E1,5.109175415E0,7.856262817E0,1.371995643E1
2.392200458E0,1.000025436E1,5.344935150E0,8.456664276E0,1.414526740E1
2.402159458E0,1.025607239E1,5.298531647E0,8.655600586E0,1.442847462E1
2.412118458E0,1.036788986E1,5.265300751E0,8.316705322E0,1.429629741E1
2.422077458E0,1.028211823E1,5.269492035E0,8.139473877E0,1.413295923E1
2.432035458E0,1.012659164E1,5.283263397E0,8.419691162E0,1.418985305E1
2.441994458E0,1.019664597E1,5.386398926E0,8.839418335E0,1.452997587E1
2.451953458E0,1.062580353E1,5.608387299E0,8.990753632E0,1.500651057E1
2.461912458E0,1.117800522E1,5.817352753E0,9.392667847E0,1.571660278E1
2.471871458E0,1.119806351E1,6.002368011E0,9.901310120E0,1.610779284E1
2.481830458E0,1.088162155E1,5.953270111E0,1.057281372E1,1.629832821E1
2.491789458E0,1.031085846E1,5.835465088E0,1.125150238E1,1.633899510E1
2.501748458E0,9.645043030E0,5.826932831E0,1.199320999E1,1.645652111E1
2.511706458E0,9.031768341E0,5.902675323E0,1.250334915E1,1.651508872E1
2.521665458E0,8.568631439E0,5.897735596E0,1.277518387E1,1.647452739E1
2.531624458E0,8.228388977E0,5.944288788E0,1.301513489E1,1.650559573E1
2.541583458E0,8.284971313E0,6.375841370E0,1.382345398E1,1.733147376E1
2.551542458E0,8.711883545E0,6.650520172E0,1.460348190E1,1.825891610E1
2.561501458E0,8.736881561E0,6.800208893E0,1.489687180E1,1.856051534E1
2.571460458E0,8.286917267E0,6.965764618E0,1.498219437E1,1.848407484E1
2.581419458E0,7.515870667E0,7.299121399E0,1.596340393E1,1.909439054E1
2.591377458E0,6.974895630E0,7.978109436E0,1.708083023E1,2.010109849E1
2.601336458E0,6.911277924E0,8.466244354E0,1.716300934E1,2.034728349E1
2.611295458E0,6.812932434E0,8.786428528E0,1.644764694E1,1.985302155E1
2.621254458E0,6.100713501E0,8.574319611E0,1.567031342E1,1.887581480E1
2.631213458E0,4.884342957E0,8.299640808E0,1.510074783E1,1.791014876E1
2.641172458E0,3.696113892E0,8.128845978E0,1.488369919E1,1.735695527E1
2.651131458E0,2.909649353E0,8.083939362E0,1.502784943E1,1.731047063E1
2.661090458E0,2.372416534E0,8.411009216E0,1.478640152E1,1.717588735E1
2.671048458E0,1.936373291E0,8.987909546E0,1.449211349E1,1.716255847E1
2.681007458E0,1.661095734E0,9.515113220E0,1.434871170E1,1.729688255E1
2.690966458E0,1.350791016E0,9.940229187E0,1.399664383E1,1.722030288E1
2.700925458E0,1.272653503E0,1.022763153E1,1.358574829E1,1.705276078E1
2.710884458E0,1.199156342E0,1.045575714E1,1.340522369E1,1.704291218E1
2.720843458E0,9.816586304E-1,1.077100159E1,1.365819763E1,1.742195429E1
2.730802458E0,7.051835632E-1,1.100780914E1,1.386731277E1,1.771924122E1
2.740761458E0,5.686674500E-1,1.095511871E1,1.375848907E1,1.759642095E1
2.750719458E0,4.071533203E-2,1.060379929E1,1.360520782E1,1.724946077E1
2.760678458E0,-8.746311951E-1,9.973310394E0,1.345372284E1,1.677004944E1
2.770637458E0,-1.891915741E0,9.314530334E0,1.284059784E1,1.597563061E1
2.780596458E0,-2.813998260E0,8.721014557E0,1.191162964E1,1.502869262E1
2.790555458E0,-3.438649292E0,8.158484344E0,1.115600098E1,1.424224468E1
2.800514458E0,-3.935466156E0,7.729326782E0,1.056233551E1,1.366723519E1
2.810473458E0,-4.306544495E0,7.586972809E0,9.885143738E0,1.318425381E1
2.820431458E0,-4.615801392E0,7.546856232E0,9.179361420E0,1.274838568E1
2.830390458E0,-4.964875488E0,7.562423859E0,8.510103149E0,1.242022942E1
2.840349458E0,-5.200934601E0,7.356452179E0,8.208779755E0,1.218815714E1
2.850308458E0,-5.584886169E0,7.168293457E0,8.065078583E0,1.214993322E1
2.860267458E0,-5.784720612E0,7.097341003E0,7.823480988E0,1.204334242E1
2.870226458E0,-6.103407898E0,6.807244263E0,7.401508484E0,1.176318368E1
2.880185458E0,-6.629264374E0,6.400090942E0,6.857539673E0,1.148625964E1
2.890144458E0,-7.361990662E0,5.905070343E0,6.271208954E0,1.133123224E1
2.900102458E0,-8.041128387E0,5.491330719E0,5.564079437E0,1.121487578E1
2.910061458E0,-8.473279724E0,5.069657593E0,4.770729218E0,1.096620968E1
2.920020458E0,-8.827892303E0,4.765490112E0,4.058360596E0,1.082182375E1
2.929979458E0,-8.952283630E0,4.584965515E0,3.389551392E0,1.061387533E1
2.939938458E0,-8.812624054E0,4.496798859E0,2.828667755E0,1.029003907E1
2.949897458E0,-8.657995605E0,4.575235748E0,2.232906647E0,1.004388083E1
2.959856333E0,-8.317902832E0,4.635859680E0,1.785487061E0,9.688481127E0
2.969815333E0,-7.876919861E0,4.583618317E0,1.494342499E0,9.235176385E0
2.979773333E0,-7.618856506E0,4.416116638E0,1.292711792E0,8.900571016E0
2.989732333E0,-7.460485840E0,4.255949707E0,8.740324402E-1,8.633417028E0
2.999691333E0,-7.257657623E0,4.164340210E0,3.594026184E-1,8.375230970E0
3.009650333E0,-7.028035126E0,4.071682892E0,-4.864883423E-2,8.122453201E0
3.019609333E0,-6.703360291E0,3.899690552E0,-4.281097412E-1,7.766975186E0
3.029568333E0,-6.305936737E0,3.781735840E0,-7.677534485E-1,7.392956746E0
3.039527333E0,-5.922434235E0,3.663631439E0,-9.291178894E-1,7.025715810E0
3.049486333E0,-5.527256012E0,3.584895172E0,-7.429051208E-1,6.629776801E0
3.059444333E0,-4.974605255E0,3.653452606E0,-4.375401306E-1,6.187556445E0
3.069403333E0,-4.430636444E0,3.754193115E0,-3.375480652E-1,5.817082081E0
3.079362333E0,-3.940106506E0,3.877835999E0,-1.760339355E-1,5.531097473E0
3.089321333E0,-3.416944427E0,3.959566040E0,5.104385376E-2,5.230322927E0
3.099280333E0,-2.956052856E0,3.999233551E0,3.996688843E-2,4.973300196E0
3.109239333E0,-2.505938873E0,3.924389191E0,-1.163081360E-1,4.657691246E0
3.119198333E0,-2.129621429E0,3.810775452E0,-2.999761963E-1,4.375760813E0
3.129157333E0,-1.744172974E0,3.690126343E0,-4.715194702E-1,4.108710552E0
3.139115333E0,-1.204694824E0,3.588936768E0,-5.786965942E-1,3.829705797E0
3.149074333E0,-5.876779175E-1,3.635939026E0,-5.391787720E-1,3.722382528E0
3.159033333E0,2.499801636E-2,3.836970978E0,-1.839674377E-1,3.841460035E0
3.168992333E0,4.854405212E-1,4.077071686E0,5.028044128E-1,4.136541830E0
3.178951333E0,8.331674194E-1,4.236041107E0,1.208736420E0,4.483219373E0
3.188910333E0,1.071771240E0,4.170477448E0,1.418450317E0,4.533605302E0
3.198869333E0,1.095422058E0,3.795806580E0,1.337019653E0,4.170817501E0
3.208827333E0,1.215023346E0,3.399430847E0,9.717791748E-1,3.738551401E0
3.218786333E0,1.495540009E0,3.273542633E0,5.882766724E-1,3.646750709E0
3.228745333E0,2.057172089E0,3.316353607E0,4.385879517E-1,3.927151339E0
3.238704333E0,2.816992035E0,3.375480652E0,4.547543335E-1,4.419967789E0
3.248663333E0,3.485501862E0,3.609893188E0,5.192701721E-1,5.044768931E0
3.258622333E0,3.909570007E0,3.859873352E0,6.815327454E-1,5.536049749E0
3.268581333E0,4.297114105E0,3.918701019E0,1.001716919E0,5.901257840E0
3.278540333E0,4.864584045E0,4.023034058E0,1.061891785E0,6.401296363E0
3.288498333E0,5.569168854E0,4.247417450E0,8.530760193E-1,7.055773197E0
3.298457333E0,6.180647278E0,4.563859406E0,5.227130127E-1,7.700807902E0
3.308416333E0,6.646179199E0,4.854854279E0,5.098397827E-1,8.246286717E0
3.318375333E0,6.917415161E0,4.807253265E0,1.277593231E0,8.520126814E0
3.328334333E0,7.202272797E0,4.975353699E0,2.008223877E0,8.981082396E0
3.338293333E0,7.772736511E0,5.158423004E0,2.204615479E0,9.585671086E0
3.348252333E0,8.370293884E0,5.216951294E0,1.982327728E0,1.006021987E1
3.358210333E0,8.891060944E0,5.411247253E0,1.650168457E0,1.053829291E1
3.368169333E0,9.057514801E0,5.653443604E0,1.928140411E0,1.084977992E1
3.378128333E0,8.957373047E0,5.837411041E0,2.825973358E0,1.105875332E1
3.388087333E0,8.784931641E0,5.849984894E0,3.920646973E0,1.125916604E1
3.398046333E0,8.659791870E0,6.018534393E0,4.606670380E0,1.150809122E1
3.408005333E0,8.610095215E0,6.224955139E0,4.683460693E0,1.161114164E1
3.417964333E0,8.916208649E0,6.454427948E0,4.546645203E0,1.190925688E1
3.427923333E0,9.514813843E0,6.766977997E0,4.537364502E0,1.252642608E1
3.437881333E0,1.022793091E1,7.175478516E0,4.599934387E0,1.331380708E1
3.447840333E0,1.087518494E1,7.756121063E0,4.884492645E0,1.422270473E1
3.457799333E0,1.114582214E1,8.397986298E0,5.642216949E0,1.505291125E1
3.467758333E0,1.117830460E1,9.003177795E0,6.456074524E0,1.573825284E1
3.477717333E0,1.100780914E1,9.620344391E0,7.661218414E0,1.650506455E1
3.487676333E0,1.096290253E1,1.038225998E1,9.352551270E0,1.776082119E1
3.497635333E0,1.116662888E1,1.146840134E1,1.172631500E1,1.984248707E1
3.507594333E0,1.148756149E1,1.295241531E1,1.287861877E1,2.157748718E1
3.517552333E0,1.118519028E1,1.372750351E1,1.160626465E1,2.117210932E1
3.527511333E0,1.079345490E1,1.352228027E1,9.647288361E0,1.980961648E1
3.537470333E0,9.501641235E0,1.314611252E1,8.395591278E0,1.826437553E1
3.547429333E0,7.926017761E0,1.276320877E1,8.918154602E0,1.747154078E1
3.557388333E0,6.584208069E0,1.245664627E1,1.040336609E1,1.751427584E1
3.567347333E0,5.596861267E0,1.240215958E1,1.101604202E1,1.750690150E1
3.577306333E0,4.898713074E0,1.247131577E1,1.057446030E1,1.706898700E1
3.587265333E0,3.725752258E0,1.227193039E1,1.048704208E1,1.656682097E1
3.597223333E0,1.962119751E0,1.201865707E1,1.127126129E1,1.659335297E1
3.607182333E0,1.986369324E-1,1.186088516E1,1.177421539E1,1.671383264E1
3.617141333E0,-1.066382446E0,1.183858154E1,1.177182037E1,1.672916434E1
3.627100333E0,-1.901944885E0,1.216011292E1,1.165566193E1,1.695111192E1
3.637059333E0,-2.377056885E0,1.238509506E1,1.176403656E1,1.724626149E1
3.647018333E0,-2.611319733E0,1.271246429E1,1.197120575E1,1.765603314E1
3.656977333E0,-2.612966309E0,1.324400894E1,1.210053680E1,1.812882668E1
3.666936333E0,-2.236798553E0,1.367780685E1,1.183139648E1,1.822272238E1
3.676894333E0,-2.181264038E0,1.383168686E1,1.138337814E1,1.804590735E1
3.686853333E0,-2.580633545E0,1.393736710E1,1.100391724E1,1.794424882E1
3.696812333E0,-3.222648468E0,1.375789032E1,1.065169968E1,1.769530207E1
3.706771333E0,-3.664978638E0,1.320838303E1,1.018976028E1,1.707994922E1
3.716730333E0,-3.918551331E0,1.266725830E1,9.823022919E0,1.650170466E1
3.726689333E0,-4.004921722E0,1.226639191E1,1.010683273E1,1.639060207E1
3.736648333E0,-4.066593475E0,1.181612823E1,1.059212357E1,1.638142700E1
3.746606333E0,-3.813619537E0,1.122755219E1,1.111378876E1,1.625170522E1
3.756565333E0,-3.954476624E0,1.054781570E1,1.196656540E1,1.643450605E1
3.766524333E0,-4.611310730E0,9.607171783E0,1.271905060E1,1.659325720E1
3.776483333E0,-5.533692627E0,8.673862610E0,1.262654297E1,1.628764053E1
3.786442333E0,-6.650071106E0,7.571255493E0,1.196925980E1,1.564642245E1
3.796401333E0,-7.865992584E0,6.504573669E0,1.110031677E1,1.507979942E1
3.806360333E0,-8.947942657E0,5.623954926E0,1.031534912E1,1.476824209E1
3.816319333E0,-9.927954712E0,4.821922760E0,9.603429565E0,1.463014297E1
3.826277333E0,-1.079495178E1,4.064647522E0,8.812324677E0,1.451583307E1
3.836236333E0,-1.137110367E1,3.520978088E0,7.944130096E0,1.431113162E1
3.846195333E0,-1.168305496E1,3.187621307E0,7.339387665E0,1.416055487E1
3.856154333E0,-1.193064011E1,2.785856781E0,7.132817230E0,1.417667990E1
3.866113333E0,-1.216909424E1,2.560126190E0,6.770570526E0,1.415915696E1
3.876072333E0,-1.216385513E1,2.352807312E0,6.090384979E0,1.380535632E1
3.886031333E0,-1.210143494E1,2.132315826E0,5.298980713E0,1.338172989E1
3.895990333E0,-1.186268143E1,2.031725006E0,4.435875549E0,1.282685110E1
3.905948333E0,-1.143232635E1,2.061812439E0,3.478017426E0,1.212624268E1
3.915907333E0,-1.078806610E1,2.188299408E0,2.650089111E0,1.132227878E1
3.925866333E0,-1.003647903E1,2.353256378E0,2.048789520E0,1.051029331E1
3.935825333E0,-9.369166718E0,2.586621094E0,1.515298920E0,9.837073980E0
3.945784333E0,-8.829688568E0,2.830314331E0,1.076860657E0,9.334543818E0
3.955743333E0,-8.397836609E0,2.954555969E0,8.788224792E-1,8.945691121E0
3.965702333E0,-7.865543518E0,3.027005310E0,7.197033691E-1,8.458576058E0
3.975660333E0,-7.348219299E0,3.018173676E0,5.692662048E-1,7.964280458E0
3.985619333E0,-6.952292633E0,3.042123871E0,2.936892700E-1,7.594415309E0
3.995578333E0,-6.643933868E0,3.159330139E0,-1.224453735E-1,7.357867697E0
4.005537333E0,-6.359225922E0,3.385210419E0,-5.348377991E-1,7.223950123E0
4.015496333E0,-6.020630035E0,3.614084473E0,-7.629634094E-1,7.063406102E0
4.025455333E0,-5.476960602E0,3.764821014E0,-7.810757446E-1,6.691864764E0
4.035414333E0,-4.897814941E0,3.792214050E0,-6.554869080E-1,6.228895704E0
4.045373333E0,-4.395309906E0,3.819158020E0,-6.415658569E-1,5.858013648E0
4.055331333E0,-3.881578217E0,3.914809113E0,-6.509962463E-1,5.551231931E0
4.065290333E0,-3.293750610E0,3.888014832E0,-5.897735596E-1,5.129647675E0
4.075249333E0,-2.837948456E0,3.838018799E0,-6.014492798E-1,4.811037411E0
4.085208333E0,-2.615361328E0,3.845503235E0,-8.310717773E-1,4.724266113E0
4.095167333E0,-2.272873535E0,3.774401093E0,-1.158740387E0,4.555736713E0
4.105126333E0,-1.824705505E0,3.608545990E0,-1.290616150E0,4.244625353E0
4.115085333E0,-1.318308563E0,3.617677002E0,-1.130449219E0,4.012909144E0
4.125043333E0,-7.661068726E-1,3.778442688E0,-5.745053101E-1,3.897897541E0
4.135002333E0,-4.867877197E-1,3.838018799E0,1.836680603E-1,3.873123357E0
4.144961333E0,-3.858975220E-1,3.696413269E0,5.769003296E-1,3.761010761E0
4.154920333E0,-5.110372925E-1,3.310665436E0,3.906875610E-1,3.372580839E0
4.164879333E0,-6.249504089E-1,2.810555420E0,1.354682922E-1,2.882383812E0
4.174838333E0,-7.081773376E-1,2.364932098E0,1.377136230E-2,2.468726113E0
4.184797333E0,-4.936734009E-1,2.195634155E0,-1.297801208E-1,2.254188468E0
4.194756333E0,1.327738953E-1,2.275717621E0,8.292755127E-2,2.281095477E0
4.204714333E0,9.595046997E-1,2.531535645E0,7.661068726E-1,2.813581655E0
4.214673333E0,1.718426514E0,2.938239899E0,1.596729584E0,3.759759134E0
4.224632333E0,2.327060852E0,3.202889557E0,2.438429260E0,4.649693644E0
4.234591333E0,2.869981842E0,3.402274933E0,2.955005035E0,5.342688953E0
4.244550333E0,3.333268433E0,3.495680695E0,2.896925812E0,5.632285604E0
4.254509333E0,3.738775177E0,3.383114777E0,2.286495209E0,5.536421747E0
4.264468333E0,4.234843597E0,3.248694305E0,1.622026978E0,5.578430469E0
4.274427333E0,4.614603882E0,3.431763611E0,1.299747162E0,5.895838630E0
4.284385333E0,5.208868103E0,3.758833466E0,1.727707214E0,6.651774812E0
4.294344333E0,5.793851624E0,3.983516235E0,2.709066467E0,7.534995644E0
4.304303333E0,6.033503265E0,4.382286987E0,3.667673035E0,8.310200141E0
4.314262333E0,6.308481445E0,4.701872406E0,4.343517609E0,8.987251387E0
4.324221333E0,6.799610138E0,5.005590820E0,4.485272827E0,9.560769311E0
4.334180333E0,7.696245575E0,5.375172272E0,3.993844757E0,1.020173852E1
4.344139333E0,8.679401093E0,5.606591034E0,3.796854401E0,1.100826824E1
4.354097333E0,9.340875549E0,5.893095245E0,4.193230133E0,1.181370842E1
4.364056333E0,9.734706573E0,6.403683472E0,5.098846893E0,1.271888021E1
4.374015333E0,1.001312759E1,6.902446289E0,5.936954041E0,1.353343682E1
4.383974333E0,1.004201752E1,7.181316376E0,6.382427673E0,1.389779852E1
4.393933333E0,9.824070740E0,7.424111481E0,6.562054138E0,1.395314845E1
4.403892333E0,9.637408905E0,7.669600983E0,6.659202118E0,1.400169284E1
4.413851333E0,9.672585754E0,7.951165466E0,6.969656525E0,1.433024981E1
4.423809333E0,9.815688171E0,8.298592987E0,7.676636353E0,1.497147707E1
4.433768333E0,9.785900116E0,8.608298950E0,8.117469635E0,1.535447704E1
4.443727333E0,9.622889099E0,8.749006348E0,8.376281433E0,1.546955711E1
4.453686333E0,9.109307098E0,8.715027008E0,8.607550507E0,1.526502857E1
4.463645333E0,8.614885254E0,8.657845917E0,8.822653198E0,1.506697559E1
4.473604333E0,8.227790222E0,8.722960510E0,8.818012848E0,1.488435160E1
4.483563333E0,8.071365509E0,8.926836548E0,8.790021057E0,1.490301386E1
4.493522333E0,8.248896332E0,9.272617493E0,9.139843597E0,1.541306157E1
4.503480333E0,8.396489410E0,9.742490387E0,9.569899292E0,1.603122347E1
4.513439333E0,8.516689453E0,1.010503647E1,1.007704468E1,1.661904301E1
4.523398333E0,8.505612488E0,1.033525772E1,1.077339661E1,1.718223124E1
4.533357333E0,8.059689789E0,1.031490005E1,1.134401001E1,1.732172987E1
4.543316333E0,7.221283264E0,1.018691620E1,1.160716278E1,1.704835539E1
4.553275333E0,6.221512299E0,1.014185989E1,1.193692703E1,1.685392430E1
4.563234333E0,5.556744690E0,1.014470398E1,1.237297028E1,1.693761565E1
4.573192333E0,5.407804413E0,1.031519943E1,1.264734970E1,1.719311322E1
4.583151333E0,5.540727997E0,1.051159103E1,1.272294250E1,1.740880463E1
4.593110333E0,5.370082855E0,1.067145859E1,1.289313858E1,1.757699749E1
4.603069333E0,4.915328522E0,1.080917221E1,1.299597473E1,1.760380691E1
4.613028333E0,4.518653412E0,1.069600754E1,1.302291870E1,1.744761352E1
4.622987333E0,3.852538605E0,1.068463120E1,1.289628204E1,1.718480399E1
4.632946333E0,3.093018036E0,1.080842377E1,1.312021637E1,1.727798780E1
4.642905333E0,2.512974243E0,1.082473984E1,1.340193054E1,1.740981833E1
4.652863333E0,2.243684235E0,1.094748459E1,1.329654968E1,1.736893121E1
4.662822333E0,2.151475983E0,1.127605133E1,1.280646881E1,1.719836696E1
4.672781333E0,2.101180573E0,1.171463928E1,1.240395584E1,1.719028370E1
4.682740333E0,1.988165588E0,1.211430817E1,1.235321136E1,1.741582889E1
4.692699333E0,1.883682861E0,1.231025070E1,1.255199799E1,1.768171900E1
4.702658333E0,1.803300018E0,1.233464996E1,1.280317566E1,1.786943725E1
4.712617333E0,1.693727875E0,1.215487381E1,1.293250671E1,1.782861187E1
4.722576333E0,1.274749146E0,1.168559967E1,1.307575882E1,1.758276695E1
4.732534333E0,5.074447632E-1,1.099628311E1,1.308309357E1,1.709804316E1
4.742493333E0,-4.764591980E-1,1.046249313E1,1.281679733E1,1.655176939E1
4.752452333E0,-1.271306305E0,9.994416504E0,1.257744507E1,1.611510799E1
4.762411333E0,-1.663191376E0,9.533375244E0,1.227462479E1,1.563067058E1
4.772370333E0,-1.939816132E0,9.094338226E0,1.201566330E1,1.519361836E1
4.782329333E0,-2.170336761E0,8.653504944E0,1.172077652E1,1.472990535E1
4.792288333E0,-2.538271637E0,8.295599213E0,1.134550690E1,1.428216776E1
4.802246333E0,-2.807411957E0,7.993227997E0,1.094254486E1,1.383880572E1
4.812205333E0,-2.827320557E0,7.787855072E0,1.060215271E1,1.345548476E1
4.822164333E0,-2.891087952E0,7.479496307E0,1.045186523E1,1.317356222E1
4.832123333E0,-3.455863495E0,7.182214508E0,1.026804749E1,1.299846133E1
4.842082333E0,-4.218527527E0,6.737639008E0,9.946815491E0,1.273306296E1
4.852041333E0,-5.124593353E0,6.218668213E0,9.341923370E0,1.233713190E1
4.862000333E0,-6.046975250E0,5.724994812E0,8.539891205E0,1.192774987E1
4.871958333E0,-6.891369324E0,5.257816315E0,7.853568420E0,1.169675769E1
4.881917333E0,-7.497758331E0,4.899760895E0,7.118896179E0,1.144127264E1
4.891876333E0,-7.922425232E0,4.715643768E0,6.291267242E0,1.116163793E1
4.901835333E0,-8.087082825E0,4.678071899E0,5.496719513E0,1.083970436E1
4.911794333E0,-8.031248932E0,4.577630768E0,4.750072174E0,1.039321166E1
4.921753333E0,-8.005502472E0,4.505031738E0,4.134252777E0,1.007350122E1
4.931712333E0,-7.959997101E0,4.382137299E0,3.727398834E0,9.821312703E0
4.941671333E0,-7.944429474E0,4.283941498E0,3.373534698E0,9.635707072E0
4.951629333E0,-7.939639435E0,4.321363678E0,3.047362976E0,9.539312318E0
4.961588833E0,-7.832312622E0,4.378245392E0,2.802771606E0,9.400515007E0
4.971547833E0,-7.559280396E0,4.381837921E0,2.621199188E0,9.122165798E0
4.981506833E0,-7.150031433E0,4.392914886E0,2.355352020E0,8.715981519E0
4.991465833E0,-6.579567719E0,4.330644379E0,1.929637299E0,8.109789899E0
5.001424833E0,-6.059698792E0,4.176914062E0,1.414558411E0,7.494500385E0
5.011383833E0,-5.657634888E0,4.128564606E0,1.063688049E0,7.084159124E0
5.021341833E0,-5.426216125E0,4.122876434E0,7.966433716E-1,6.861236929E0
5.031300833E0,-5.428012390E0,4.032614136E0,7.415579224E-1,6.802587995E0
5.041259833E0,-5.330115967E0,3.815715179E0,7.458988953E-1,6.597437663E0
5.051218833E0,-5.019960938E0,3.533851318E0,5.550457764E-1,6.164104863E0
5.061177833E0,-4.582869873E0,3.330723724E0,2.606080627E-1,5.671360804E0
5.071136833E0,-4.011208649E0,3.191064148E0,1.092727661E-1,5.126853397E0
5.081095833E0,-3.445834351E0,3.167413330E0,1.145118713E-1,4.681815304E0
5.091054833E0,-2.841091919E0,3.244652710E0,2.085163879E-1,4.317760251E0
5.101012833E0,-2.274370422E0,3.356619873E0,3.790118408E-1,4.072260768E0
5.110971833E0,-1.882635040E0,3.442690887E0,6.789880371E-1,3.982142639E0
5.120930833E0,-1.651665344E0,3.396287384E0,9.264234924E-1,3.888576461E0
5.130889833E0,-1.292113037E0,3.281925201E0,1.065035248E0,3.684411650E0
5.140848833E0,-8.249345398E-1,3.142265625E0,9.630972290E-1,3.388496204E0
5.150807833E0,-3.094065857E-1,2.981949005E0,8.575666809E-1,3.118200269E0
5.160766833E0,1.646575928E-2,2.809956665E0,9.093589783E-1,2.953482915E0
5.170725833E0,8.337661743E-2,2.645897827E0,1.115330658E0,2.872575403E0
5.180683833E0,4.101470947E-2,2.533032532E0,1.258133698E0,2.828574979E0
5.190642833E0,-4.445755005E-2,2.458487549E0,1.463506622E0,2.861466256E0
5.200601833E0,-5.867797852E-2,2.307451630E0,1.963916016E0,3.030633967E0
5.210560833E0,4.926255798E-1,2.143392792E0,2.125729523E0,3.058682498E0
5.220519833E0,1.569037170E0,2.012265472E0,1.875899048E0,3.167031293E0
5.230478833E0,2.916085968E0,2.252665558E0,1.572180634E0,4.006221591E0
5.240437833E0,4.112098846E0,2.751128998E0,1.390757904E0,5.139287425E0
5.250396833E0,4.779261475E0,3.270099792E0,1.765129395E0,6.053971810E0
5.260354833E0,5.018613739E0,3.681594086E0,2.485880585E0,6.702254931E0
5.270313833E0,5.071453857E0,3.739074554E0,3.070115662E0,7.008989437E0
5.280272833E0,5.500012665E0,3.728746033E0,3.172053680E0,7.363125073E0
5.290231833E0,6.424639893E0,3.951333160E0,2.905757446E0,8.082849611E0
5.300190833E0,7.419620819E0,4.306843872E0,2.823428650E0,9.031690129E0
5.310149833E0,8.314909058E0,4.818180542E0,3.245999908E0,1.014342604E1
5.320108833E0,8.918004913E0,5.314997406E0,3.840563507E0,1.106932415E1
5.330066833E0,9.075477448E0,5.647006989E0,4.332740021E0,1.153367309E1
5.340025833E0,9.195378113E0,5.994584198E0,4.528233490E0,1.187412805E1
5.349984833E0,9.337283020E0,6.145470428E0,4.562961273E0,1.207361903E1
5.359943833E0,9.431736603E0,6.267466736E0,4.711751862E0,1.226537404E1
5.369902833E0,9.608668671E0,6.391109619E0,4.898862762E0,1.253681188E1
5.379861833E0,1.001492386E1,6.612648926E0,5.160967712E0,1.306374424E1
5.389820833E0,1.067490143E1,6.989415436E0,5.116959229E0,1.374731684E1
5.399779833E0,1.127245880E1,7.395221558E0,5.191504211E0,1.444677629E1
5.409737833E0,1.146256348E1,7.765701141E0,5.674100647E0,1.496301754E1
5.419696833E0,1.143546982E1,8.258626099E0,6.394253082E0,1.548745775E1
5.429655833E0,1.136855896E1,8.561296692E0,6.895261230E0,1.581406214E1
5.439614833E0,1.115704880E1,8.671617279E0,7.322472839E0,1.591525346E1
5.449573833E0,1.104178848E1,8.761580200E0,7.802823944E0,1.611118996E1
5.459532833E0,1.086410797E1,8.830586700E0,8.223449249E0,1.623678604E1
5.469491833E0,1.078821579E1,9.016051025E0,8.599916382E0,1.648130267E1
5.479450833E0,1.082234482E1,9.283395081E0,8.807834015E0,1.675954986E1
5.489408833E0,1.080782501E1,9.552685089E0,9.056916046E0,1.703204633E1
5.499367833E0,1.061457687E1,9.821376343E0,9.365873566E0,1.722928504E1
5.509326833E0,1.019275406E1,1.013497421E1,9.706714783E0,1.734445875E1
5.519285833E0,9.792785797E0,1.024469604E1,1.022942780E1,1.747837646E1
5.529244833E0,9.478289795E0,1.011476624E1,1.073058563E1,1.752974448E1
5.539203833E0,9.216633911E0,1.002360580E1,1.104418350E1,1.753262682E1
5.549162833E0,8.895252228E0,9.948013000E0,1.134116592E1,1.751315275E1
5.559121833E0,8.293802948E0,9.831405487E0,1.167991150E1,1.737423477E1
5.569079833E0,7.412585449E0,9.600884857E0,1.204215820E1,1.709201531E1
5.579038833E0,6.354136505E0,9.385033722E0,1.227237946E1,1.670524487E1
5.588997833E0,5.320386200E0,9.454189911E0,1.228689926E1,1.639073243E1
5.598956833E0,4.644541626E0,9.486372986E0,1.239302856E1,1.628343319E1
5.608915833E0,4.217779083E0,9.537566528E0,1.255993149E1,1.632503337E1
5.618874833E0,4.124073944E0,9.769733734E0,1.255529114E1,1.643444610E1
5.628833833E0,4.362827454E0,1.007180557E1,1.238329880E1,1.654755631E1
5.638792833E0,4.436474304E0,1.040516235E1,1.246353195E1,1.683120128E1
5.648750833E0,4.145030365E0,1.069391190E1,1.270707550E1,1.711755812E1
5.658709833E0,3.389102325E0,1.090706863E1,1.306183777E1,1.735113157E1
5.668668833E0,2.386337585E0,1.088177124E1,1.360071716E1,1.758087198E1
5.678627833E0,1.462907867E0,1.061038559E1,1.395637756E1,1.759263643E1
5.688586833E0,8.352630615E-1,1.030112869E1,1.382749557E1,1.726298209E1
5.698545833E0,4.453239441E-1,1.006716522E1,1.331780548E1,1.670060094E1
5.708504833E0,1.701960754E-1,9.817035370E0,1.275108398E1,1.609326856E1
5.718463833E0,-1.172062683E-1,9.672436066E0,1.231144821E1,1.565699568E1
5.728421833E0,-5.520520020E-1,9.594747620E0,1.217268677E1,1.550929548E1
5.738380833E0,-1.199605408E0,9.252259827E0,1.235171448E1,1.547928343E1
5.748339833E0,-1.843416595E0,8.822653198E0,1.242461288E1,1.534954069E1
5.758298833E0,-2.278112640E0,8.437055054E0,1.204919357E1,1.488478287E1
5.768257833E0,-2.557431793E0,8.191715240E0,1.135942795E1,1.423661685E1
5.778216833E0,-2.680026855E0,7.872429199E0,1.070858139E1,1.355844389E1
5.788175833E0,-3.030597839E0,7.552095337E0,1.011761032E1,1.298401732E1
5.798134833E0,-3.385659485E0,7.202272797E0,9.744586029E0,1.258142998E1
5.808092833E0,-3.780837708E0,6.852001190E0,9.349707184E0,1.219268955E1
5.818051833E0,-4.200864258E0,6.637197876E0,8.887767792E0,1.186136891E1
5.828010833E0,-4.742438049E0,6.377188568E0,8.408314819E0,1.156974549E1
5.837969833E0,-5.346581726E0,6.151308289E0,8.022267609E0,1.143596552E1
5.847928833E0,-5.949527893E0,5.859714661E0,7.643106079E0,1.132034490E1
5.857887833E0,-6.514602814E0,5.622458038E0,7.160958710E0,1.119515135E1
5.867846833E0,-6.885830841E0,5.400020599E0,6.633006592E0,1.098051298E1
5.877805833E0,-7.214696960E0,5.258564758E0,6.094725952E0,1.080971970E1
5.887763833E0,-7.512727203E0,5.106031952E0,5.762117615E0,1.075707357E1
5.897722833E0,-7.762407990E0,5.017116852E0,5.473218384E0,1.074162738E1
5.907681833E0,-7.669600983E0,4.918022919E0,5.024601288E0,1.040463102E1
5.917640833E0,-7.479496307E0,4.904700623E0,4.393064575E0,9.964836655E0
5.927599833E0,-7.310497742E0,4.955594788E0,3.797153778E0,9.613515161E0
5.937558833E0,-6.966213684E0,4.996759186E0,3.324885864E0,9.195140100E0
5.947517833E0,-6.629713440E0,4.958438873E0,2.939138031E0,8.785086722E0
5.957475833E0,-6.463558960E0,4.974605255E0,2.552641754E0,8.546360149E0
5.967434833E0,-6.361022186E0,4.937033386E0,2.299218750E0,8.373966131E0
5.977393833E0,-6.277046814E0,4.855453033E0,2.066153412E0,8.200349431E0
5.987352833E0,-5.955665131E0,4.753814392E0,1.720222778E0,7.812033335E0
5.997311833E0,-5.551954651E0,4.750371552E0,1.287622375E0,7.419447534E0
6.007270833E0,-5.056335297E0,4.757107544E0,9.033714294E-1,7.000905567E0
6.017229833E0,-4.523144073E0,4.733007660E0,6.012995911E-1,6.574325442E0
6.027188833E0,-3.983665924E0,4.693040771E0,3.353027344E-1,6.164953674E0
6.037146833E0,-3.529061279E0,4.759053497E0,6.481521606E-2,5.925121494E0
6.047105833E0,-3.231929169E0,4.887486420E0,-1.145118713E-1,5.860546273E0
6.057064833E0,-3.065175934E0,4.922513580E0,-5.403762817E-2,5.799082989E0
6.067023833E0,-2.976709900E0,4.891078949E0,1.818717957E-1,5.728571590E0
6.076982833E0,-2.728825378E0,4.762196960E0,3.412902832E-1,5.499226027E0
6.086941833E0,-2.053729248E0,4.609364777E0,1.046324158E-1,5.047276039E0
6.096900833E0,-1.313219147E0,4.594994659E0,-3.320095825E-1,4.790485446E0
6.106859833E0,-6.982978821E-1,4.678970032E0,-6.490502930E-1,4.775106991E0
6.116817833E0,-2.134561157E-1,4.784799957E0,-6.448590088E-1,4.832775319E0
6.126776833E0,7.888595581E-2,4.907694397E0,-3.939807129E-1,4.924114955E0
6.136735833E0,1.098715210E-1,4.941524048E0,2.874023438E-2,4.942828913E0
6.146694833E0,-1.555265808E-1,4.741988983E0,5.909710693E-1,4.781202238E0
6.156653833E0,-4.858895874E-1,4.315675507E0,1.072369995E0,4.473379167E0
6.166612833E0,-9.321116638E-1,3.860023041E0,9.624984741E-1,4.085953174E0
6.176571833E0,-9.128018188E-1,3.413651276E0,7.131170654E-1,3.604824287E0
6.186530833E0,-1.969903564E-1,3.053949280E0,4.707710266E-1,3.096294037E0
6.196488833E0,7.152127075E-1,2.924318848E0,2.591111755E-1,3.021640042E0
6.206447833E0,1.338217163E0,3.065475311E0,2.624043274E-1,3.355118491E0
6.216406833E0,1.902843018E0,3.296744385E0,7.665559387E-1,3.882903951E0
6.226365833E0,2.313738556E0,3.486399994E0,1.489253082E0,4.441423844E0
6.236324833E0,2.366428986E0,3.597618713E0,2.067051544E0,4.776562429E0
6.246283833E0,2.348616028E0,3.565285950E0,2.336790619E0,4.867016699E0
6.256242833E0,2.863545227E0,3.473077698E0,2.359543304E0,5.082283401E0
6.266200833E0,4.032015381E0,3.562741241E0,2.276765442E0,5.842425358E0
6.276159833E0,5.295837250E0,3.889811096E0,2.259700928E0,6.948580490E0
6.286118833E0,6.159241791E0,4.402644653E0,2.615660706E0,8.010069931E0
6.296077833E0,6.467151489E0,4.561913452E0,3.321293335E0,8.582895324E0
6.306036833E0,6.440207520E0,4.632416840E0,3.980372772E0,8.875749325E0
6.315995833E0,6.140231323E0,4.853207703E0,4.543501740E0,9.049832803E0
6.325954833E0,6.160139923E0,4.882846069E0,5.227579193E0,9.440185053E0
6.335913833E0,6.579118652E0,4.969366150E0,5.724246368E0,1.003725055E1
6.345871833E0,7.399412842E0,5.317841492E0,5.838907928E0,1.082236547E1
6.355830833E0,8.054899750E0,5.678890686E0,5.927673340E0,1.150080522E1
6.365789833E0,8.455616455E0,5.811065826E0,6.021378479E0,1.189634122E1
6.375748833E0,8.508905640E0,5.800737305E0,6.054759064E0,1.194613476E1
6.385707833E0,8.399932251E0,5.802982635E0,6.179599457E0,1.193402358E1
6.395666833E0,8.588540039E0,5.836662598E0,6.360423431E0,1.217721793E1
6.405625833E0,9.148375854E0,6.175857239E0,6.381978607E0,1.275004488E1
6.415584833E0,9.909992065E0,6.657106476E0,6.456074524E0,1.357224770E1
6.425542833E0,1.060364960E1,7.135511627E0,6.720125427E0,1.443997911E1
6.435501833E0,1.101140167E1,7.563471680E0,7.169940033E0,1.516130307E1
6.445460833E0,1.116662888E1,7.970026245E0,7.561675415E0,1.566505199E1
6.455419833E0,1.105271576E1,8.070018311E0,7.864795074E0,1.578425553E1
6.465378833E0,1.063014450E1,8.024063873E0,8.145611115E0,1.561206436E1
6.475337833E0,1.022942780E1,7.966583405E0,8.434959412E0,1.546790821E1
6.485296833E0,9.956245880E0,7.941735077E0,8.768615570E0,1.546242565E1
6.495255833E0,9.918374634E0,8.051307220E0,9.148076477E0,1.571257479E1
6.505213833E0,9.913883972E0,8.240513763E0,9.595196686E0,1.607043752E1
6.515172833E0,9.893675995E0,8.421038361E0,9.978998566E0,1.638228080E1
6.525131833E0,9.800719299E0,8.563691711E0,1.017868332E1,1.652260599E1
6.535090833E0,9.677675171E0,8.640332336E0,1.038645126E1,1.661899845E1
6.545049833E0,9.554780731E0,8.633147278E0,1.062355820E1,1.669386281E1
6.555008833E0,9.309889984E0,8.512049103E0,1.070828201E1,1.654679229E1
6.564967833E0,8.933871918E0,8.418643341E0,1.090422455E1,1.641918805E1
6.574925833E0,8.270002441E0,8.479566650E0,1.130149841E1,1.637131202E1
6.584884833E0,7.378755798E0,8.562045135E0,1.177915512E1,1.632492418E1
6.594843833E0,6.580615540E0,8.648864594E0,1.219933136E1,1.633802452E1
6.604802833E0,6.059399414E0,8.813372498E0,1.242805573E1,1.639659797E1
6.614761833E0,5.791755981E0,8.909023590E0,1.239542358E1,1.632671628E1
6.624720833E0,5.684429169E0,8.890611877E0,1.227642105E1,1.618845973E1
6.634679833E0,5.566923523E0,9.011111298E0,1.206386307E1,1.605389537E1
6.644638833E0,5.218897247E0,9.253457336E0,1.189501419E1,1.594850224E1
6.654596833E0,4.631069641E0,9.537267151E0,1.191806625E1,1.595138157E1
6.664555833E0,3.955674133E0,9.746082916E0,1.195623688E1,1.592435526E1
6.674514833E0,3.372636566E0,9.860744476E0,1.196791260E1,1.586946410E1
6.684473833E0,3.132685547E0,9.898915100E0,1.193123886E1,1.581634280E1
6.694432833E0,3.006348267E0,1.004201752E1,1.172706345E1,1.572908970E1
6.704391833E0,3.000959473E0,1.026400589E1,1.162871796E1,1.579818521E1
6.714350833E0,2.972518616E0,1.049048492E1,1.172107590E1,1.600842781E1
6.724309833E0,2.787203979E0,1.063298859E1,1.199814972E1,1.627220173E1
6.734267833E0,2.424059143E0,1.066756668E1,1.237147339E1,1.651442992E1
6.744226833E0,2.036664734E0,1.048180298E1,1.258238480E1,1.650250296E1
6.754185833E0,1.752256165E0,1.003992188E1,1.252131180E1,1.614477259E1
6.764144833E0,1.393751678E0,9.508975983E0,1.216684891E1,1.550468898E1
6.774103833E0,9.506730652E-1,9.079069977E0,1.144909149E1,1.464291593E1
6.784062833E0,1.628613281E-1,9.106762390E0,1.077519287E1,1.410901933E1
6.794021833E0,-3.010240173E-1,8.789871368E0,1.062295944E1,1.379129151E1
6.803979833E0,-7.520361328E-1,8.402027893E0,1.089449478E1,1.377859382E1
6.813938833E0,-1.184187469E0,8.115823059E0,1.116138977E1,1.385083050E1
6.823897833E0,-1.390009460E0,7.710615692E0,1.095496902E1,1.346837284E1
6.833856833E0,-1.497186584E0,7.531288605E0,1.041324554E1,1.293822084E1
6.843815833E0,-1.489851837E0,7.552993469E0,9.724827118E0,1.240321052E1
6.853774833E0,-1.665137329E0,7.575297089E0,9.185947723E0,1.202245582E1
6.863733833E0,-1.856888580E0,7.556136932E0,8.940009155E0,1.185187767E1
6.873692833E0,-2.222129059E0,7.410040741E0,9.125623169E0,1.196342591E1
6.883650833E0,-2.940036163E0,6.954088898E0,9.250613251E0,1.194056157E1
6.893609833E0,-4.018693085E0,6.460265808E0,8.947942657E0,1.174523760E1
6.903568833E0,-4.573439484E0,5.936954041E0,8.199349365E0,1.110824478E1
6.913527833E0,-4.718038788E0,5.554948425E0,7.140750732E0,1.020331628E1
6.923486833E0,-4.678970032E0,5.616320801E0,6.024671631E0,9.472723376E0
6.933445833E0,-4.496798859E0,5.792803802E0,5.178032227E0,8.977181830E0
6.943404833E0,-4.302802277E0,5.893244934E0,4.801714783E0,8.735039103E0
6.953362833E0,-4.154760132E0,5.849386139E0,4.343068542E0,8.386870353E0
6.963321958E0,-4.937332764E0,5.694458313E0,3.718866577E0,8.404408303E0
6.973280958E0,-6.292464752E0,5.471571808E0,3.246448975E0,8.948331780E0
6.983239958E0,-7.344626770E0,4.770729218E0,2.599194946E0,9.135601459E0
6.993198958E0,-7.925119629E0,3.977079620E0,1.922152863E0,9.073001436E0
7.003157958E0,-7.578889618E0,3.574866028E0,1.300794983E0,8.480053216E0
7.013116958E0,-7.056176605E0,4.011208649E0,7.580236816E-1,8.151933698E0
7.023075958E0,-6.485712891E0,4.859644318E0,5.462141418E-1,8.122743655E0
7.033033958E0,-5.737868042E0,5.300776978E0,6.484515381E-1,7.838485544E0
7.042992958E0,-5.095104675E0,5.504353638E0,8.831634521E-1,7.552349191E0
7.052951958E0,-5.063071289E0,5.353617096E0,1.420396271E0,7.504227639E0
7.062910958E0,-5.589676208E0,4.971461792E0,2.070494385E0,7.761885046E0
7.072869958E0,-6.124663696E0,4.500541077E0,2.180964661E0,7.907147540E0
7.082828958E0,-5.869145050E0,4.187541962E0,1.667831726E0,7.400272560E0
7.092787958E0,-5.679938507E0,3.904779968E0,9.006770325E-1,6.951275218E0
7.102745958E0,-4.783752136E0,3.832929382E0,4.191284180E-1,6.144208719E0
7.112704958E0,-3.808230743E0,3.934717712E0,1.225950623E-1,5.477194028E0
7.122663958E0,-3.072061615E0,4.135599976E0,1.083746338E-1,5.152911292E0
7.132622958E0,-2.551893311E0,4.465663605E0,3.728746033E-1,5.156873701E0
7.142581958E0,-2.202070770E0,4.700674896E0,5.301974487E-1,5.217908536E0
7.152540958E0,-1.736987915E0,4.888384552E0,7.695497131E-1,5.244581709E0
7.162499958E0,-1.454525299E0,4.847369843E0,8.530760193E-1,5.132287690E0
7.172457958E0,-9.806108093E-1,4.722379761E0,9.500743103E-1,4.915802006E0
7.182416958E0,-7.264393616E-1,4.692292328E0,8.267308044E-1,4.819627087E0
7.192375958E0,-1.021625519E0,4.417613525E0,6.433621216E-1,4.579622559E0
7.202334958E0,-1.189127197E0,3.872447205E0,7.556286621E-1,4.120782149E0
7.212293958E0,-1.237177277E0,3.614683228E0,7.150630188E-1,3.886882757E0
7.222252958E0,-9.533674622E-1,3.544479218E0,5.556445312E-1,3.712274678E0
7.232211958E0,-3.888912964E-1,3.633394318E0,4.775070190E-1,3.685214195E0
7.242170958E0,4.345463562E-1,3.713328094E0,2.983296204E-1,3.750551511E0
7.252128958E0,1.011596375E0,3.494782562E0,7.214996338E-2,3.638961115E0
7.262087958E0,1.384171600E0,3.097059631E0,3.969744873E-1,3.415449915E0
7.272046958E0,1.499132538E0,2.960094452E0,1.541644135E0,3.658718924E0
7.282005958E0,2.152224426E0,2.970273285E0,2.988086243E0,4.731094246E0
7.291964958E0,2.951562195E0,3.161725159E0,3.538641357E0,5.588399415E0
7.301923958E0,3.225342865E0,3.558100891E0,2.900218964E0,5.610186145E0
7.311882958E0,3.874991913E0,3.625011749E0,2.381846924E0,5.816310452E0
7.321840958E0,4.510270844E0,3.576961670E0,2.233056335E0,6.174442361E0
7.331799958E0,5.087021484E0,3.700754242E0,2.355651398E0,6.717325588E0
7.341758958E0,5.167853394E0,3.922892303E0,2.991678772E0,7.144643770E0
7.351717958E0,5.267695770E0,4.095782776E0,4.301305389E0,7.938846473E0
7.361676958E0,6.086642761E0,4.586612091E0,5.455106049E0,9.372428318E0
7.371635958E0,6.996001740E0,4.868176575E0,5.356610870E0,1.006660139E1
7.381594958E0,7.702682190E0,4.864434357E0,4.623884583E0,1.021637622E1
7.391553958E0,8.339458008E0,5.059778137E0,4.148323517E0,1.059983503E1
7.401511958E0,8.145162048E0,5.023104401E0,3.949536896E0,1.035249170E1
7.411470958E0,7.486232300E0,4.846172333E0,4.499193878E0,9.988583777E0
7.421429958E0,7.125931549E0,4.743485870E0,5.686824188E0,1.027713618E1
7.431388958E0,7.691455536E0,5.017715607E0,6.324198761E0,1.115040125E1
7.441347958E0,8.519383850E0,5.614075470E0,6.751260681E0,1.223426603E1
7.451306958E0,9.498198395E0,6.269712067E0,7.159461823E0,1.344555524E1
7.461265958E0,9.985734558E0,6.855444031E0,7.188800812E0,1.408512920E1
7.471223958E0,9.890981598E0,7.064858551E0,6.771318970E0,1.391382420E1
7.481182958E0,9.630074158E0,7.233557739E0,6.790329437E0,1.382646953E1
7.491141958E0,9.325607300E0,7.041806488E0,7.006779327E0,1.362530538E1
7.501100958E0,8.928183746E0,7.027136993E0,7.244784393E0,1.347516309E1
7.511059958E0,8.602012024E0,7.136110382E0,7.507787476E0,1.346423243E1
7.521018958E0,8.709338837E0,7.264543304E0,7.341782684E0,1.351029035E1
7.530977958E0,8.520581360E0,8.728798370E0,6.364764404E0,1.375872282E1
7.540936958E0,8.451425171E0,7.045698395E0,9.844428406E0,1.476418721E1
7.550894958E0,7.904761963E0,7.314838715E0,1.252445526E1,1.651829612E1
7.560853958E0,6.782246246E0,8.178842010E0,1.209215424E1,1.609697223E1
7.570812958E0,6.721472626E0,8.422086182E0,1.066157913E1,1.515846297E1
7.580771958E0,6.571484528E0,8.080496521E0,9.878407745E0,1.435485188E1
7.590730958E0,5.399122467E0,7.635471954E0,1.013018417E1,1.378664523E1
7.600689958E0,4.547693024E0,7.353308716E0,1.090676926E1,1.391798392E1
7.610648958E0,4.655468903E0,7.433242493E0,1.134251312E1,1.433802945E1
7.620606958E0,4.744982758E0,7.584428101E0,1.135478760E1,1.445578128E1
7.630565958E0,4.852309570E0,7.660320282E0,1.161883850E1,1.473848103E1
7.640524958E0,4.825664978E0,7.537725220E0,1.169652695E1,1.472796953E1
7.650483958E0,4.636757812E0,7.440277863E0,1.153052216E1,1.448482650E1
7.660442958E0,4.293371887E0,7.261549530E0,1.138637192E1,1.417083657E1
7.670401958E0,3.606001282E0,6.781497803E0,1.135314102E1,1.370714298E1
7.680360958E0,3.065475311E0,6.411317596E0,1.113998428E1,1.321368162E1
7.690318958E0,2.779270477E0,6.287375336E0,1.085871918E1,1.285173977E1
7.700277958E0,2.659818878E0,6.294410706E0,1.085198318E1,1.282418737E1
7.710236958E0,2.632425842E0,6.301146698E0,1.064241898E1,1.264496727E1
7.720195958E0,2.341880035E0,6.163283386E0,1.047895889E1,1.238059141E1
7.730154958E0,1.816322937E0,5.786067810E0,1.031789383E1,1.196814701E1
7.740113958E0,8.409512329E-1,5.042863312E0,9.969119110E0,1.120361572E1
7.750072958E0,8.671467590E-1,4.974605255E0,9.903405762E0,1.111647816E1
7.760030958E0,9.343569946E-1,5.918093262E0,9.695787506E0,1.139759388E1
7.769989958E0,2.525248718E-1,5.679639130E0,9.460626526E0,1.103746002E1
7.779948958E0,-1.661544800E-1,5.316045227E0,1.020772293E1,1.151023682E1
7.789907958E0,1.511856079E-2,5.308560791E0,1.086350922E1,1.209119013E1
7.799866958E0,-1.633103943E-1,5.154231720E0,1.067579956E1,1.185603100E1
7.809825958E0,-4.706213379E-1,4.688400421E0,1.036055511E1,1.138172593E1
7.819784958E0,-7.496411133E-1,4.480183411E0,1.002779709E1,1.100866566E1
7.829743958E0,-1.029858398E0,4.691244507E0,9.566905518E0,1.070486172E1
7.839701958E0,-9.854008484E-1,5.104385376E0,8.985065460E0,1.038061493E1
7.849660958E0,-5.718109131E-1,5.570516052E0,8.528514862E0,1.020260666E1
7.859619958E0,1.350192261E-1,6.012995911E0,8.428073730E0,1.035407054E1
7.869578958E0,7.274871826E-1,6.021977234E0,8.593779144E0,1.051886341E1
7.879537958E0,6.882687378E-1,5.684279480E0,8.819509735E0,1.051515568E1
7.889496958E0,2.389031982E-1,5.359754333E0,9.065148926E0,1.053380113E1
7.899455958E0,-1.764830017E-1,5.353766785E0,9.206305389E0,1.065129213E1
7.909413958E0,-4.384382629E-1,5.513933716E0,9.243128815E0,1.077177439E1
7.919372958E0,-3.623963928E-1,5.595214691E0,9.148974609E0,1.073040050E1
7.929331958E0,-2.050735474E-1,5.662574615E0,8.942853241E0,1.058685178E1
7.939290958E0,-7.708969116E-2,5.697003021E0,8.735983429E0,1.042972640E1
7.949249958E0,-1.086740112E-1,5.656437378E0,8.649613037E0,1.033551641E1
7.959208583E0,-1.182540894E-1,5.627996521E0,8.563542023E0,1.024805254E1
7.969167583E0,-1.832189941E-1,5.510939941E0,8.502169647E0,1.013365270E1
7.979125583E0,-3.234773254E-1,5.255271606E0,8.468489685E0,9.971852124E0
7.989084583E0,-4.834945679E-1,5.029990082E0,8.417745209E0,9.817993768E0
7.999043583E0,-5.998027039E-1,4.834795990E0,8.430917816E0,9.737319486E0
8.009002583E0,-5.640270996E-1,4.599185944E0,8.466244354E0,9.651317598E0
8.018961583E0,-6.463558960E-1,4.552333374E0,8.514294434E0,9.676503748E0
8.028920583E0,-6.950047302E-1,4.663851471E0,8.594228210E0,9.802821056E0
8.038879583E0,-5.134323120E-1,4.751269684E0,8.602161713E0,9.840496048E0
8.048837583E0,-3.468287659E-1,4.865182800E0,8.431666260E0,9.740805397E0
8.058796583E0,-3.231779480E-1,4.867428131E0,8.250093842E0,9.584380470E0
8.068755583E0,-1.600172424E-1,4.716242523E0,8.133186951E0,9.403046263E0
8.078714583E0,3.981719971E-2,4.661755829E0,8.116571503E0,9.360143470E0
8.088673583E0,1.535806274E-1,4.726121979E0,8.137078857E0,9.411262843E0
8.098632583E0,2.474354553E-1,4.782255249E0,8.203840027E0,9.499167372E0
8.108591583E0,4.721182251E-1,4.925058289E0,8.259524231E0,9.628023436E0
8.118549583E0,6.042933655E-1,5.073250122E0,8.277037811E0,9.726890161E0
8.128508583E0,4.719685364E-1,5.043611755E0,8.309969330E0,9.732233254E0
8.138467583E0,3.827540588E-1,4.831802216E0,8.409662018E0,9.706452935E0
8.148426583E0,1.678010559E-1,4.652325439E0,8.406219177E0,9.609204444E0
8.158385583E0,1.347198486E-2,4.475543060E0,8.357869720E0,9.480751734E0
8.168344583E0,1.365161133E-1,4.323159943E0,8.342601471E0,9.397198936E0
8.178303583E0,2.986289978E-1,4.456233215E0,8.323291626E0,9.445865616E0
8.188261583E0,6.581813049E-1,4.859045563E0,8.328530731E0,9.664778867E0
8.198220583E0,1.057550812E0,5.264851685E0,8.362959137E0,9.938619749E0
8.208179583E0,1.062490540E0,5.522615662E0,8.453371124E0,1.015320901E1
8.218138583E0,9.566606140E-1,5.452860718E0,8.504714355E0,1.014785967E1
8.228097583E0,8.732839966E-1,5.264851685E0,8.491990814E0,1.002971566E1
8.238056583E0,8.565188599E-1,5.103337555E0,8.312813416E0,9.791861194E0
8.248015583E0,7.488926697E-1,4.865631866E0,8.188122711E0,9.554086415E0
8.257974583E0,8.355624390E-1,4.674030304E0,8.023614807E0,9.323256858E0
8.267932583E0,7.198530579E-1,4.625231781E0,7.882608032E0,9.167686014E0
8.277891583E0,5.463638306E-1,4.666545868E0,7.966284027E0,9.248613138E0
8.287850583E0,7.277865601E-1,4.888983307E0,8.101452942E0,9.490277700E0
8.297809583E0,1.195713501E0,5.261408844E0,8.109985199E0,9.740842557E0
8.307768583E0,1.402283936E0,5.501659241E0,7.848479004E0,9.686757833E0
8.317727583E0,1.145717468E0,5.423372040E0,7.290439453E0,9.158391792E0
8.327686583E0,7.454498291E-1,5.109774170E0,7.523654480E0,9.125287078E0
8.337644583E0,6.478527832E-1,4.976251831E0,7.724985809E0,9.211851132E0
8.347603583E0,6.348298645E-1,4.870571594E0,8.236322479E0,9.589707221E0
8.357562583E0,7.795788574E-1,4.913831635E0,8.618627472E0,9.951594045E0
8.367521583E0,1.009201355E0,5.112618256E0,8.738528137E0,1.017443988E1
8.377480583E0,1.247805176E0,5.260660400E0,8.691825256E0,1.023618053E1
8.387439583E0,1.334474945E0,5.386847992E0,8.416697388E0,1.008165411E1