"Time (s)","Acceleration x (m/s^2)","Acceleration y (m/s^2)","Acceleration z (m/s^2)","Absolute acceleration (m/s^2)"
2.691874979E-3,1.982477417E0,6.894512787E0,6.515950012E0,9.691342933E0
1.265087497E-2,1.951791229E0,7.026687927E0,6.561904449E0,9.810322229E0
2.260887501E-2,1.826501770E0,7.061864777E0,6.587950287E0,9.828892706E0
3.256787499E-2,1.719923401E0,7.109914856E0,6.621031494E0,9.866462578E0
4.252587497E-2,1.522184601E0,7.239694977E0,6.696923676E0,9.978928601E0
5.248487502E-2,1.125060425E0,7.272327118E0,6.780300293E0,1.000624679E1
6.244287500E-2,8.583151245E-1,7.119494934E0,7.056026917E0,1.006038910E1
7.240187499E-2,7.771838379E-1,6.737489319E0,7.463030548E0,1.008437415E1
8.235987497E-2,6.083349609E-1,6.291117554E0,7.524253235E0,9.826628020E0
9.231887502E-2,4.941224670E-1,5.768554230E0,7.390730896E0,9.388465162E0
1.022768750E-1,1.377136230E-2,5.608986053E0,7.440128174E0,9.317533013E0
1.122358750E-1,-3.781137085E-1,6.046526184E0,7.534581757E0,9.668162758E0
1.221938750E-1,-4.547543335E-1,6.396199036E0,7.619305573E0,9.958512992E0
1.321518750E-1,-2.998265076E-1,6.519542542E0,7.674989777E0,1.007471086E1
1.421108750E-1,-3.068618774E-2,6.451733551E0,7.788753204E0,1.011387581E1
1.520688750E-1,2.398013306E-1,6.313271484E0,7.903265076E0,1.011812732E1
1.620278750E-1,4.174818420E-1,6.273005219E0,7.823630676E0,1.003663701E1
1.719858750E-1,4.077520752E-1,6.288572845E0,7.689509583E0,9.941879491E0
1.819448750E-1,2.561174011E-1,6.352639618E0,7.529043274E0,9.854345177E0
1.919028750E-1,1.074765015E-1,6.447841644E0,7.425758057E0,9.835044270E0
2.018618750E-1,3.817062378E-2,6.483317871E0,7.394622803E0,9.834394440E0
2.118198750E-1,-1.556762695E-2,6.392007751E0,7.347021790E0,9.738415406E0
2.217788750E-1,-8.143066406E-2,6.331982574E0,7.303462372E0,9.666498688E0
2.317368750E-1,-1.669029236E-1,6.295308838E0,7.222480774E0,9.582431762E0
2.416958750E-1,-2.986289978E-1,6.191424866E0,7.030280457E0,9.372713825E0
2.516538750E-1,-4.532574463E-1,6.066285095E0,6.821764069E0,9.140116092E0
2.616128750E-1,-5.667214966E-1,5.899382172E0,6.631958771E0,8.894198131E0
2.715708750E-1,-6.713539124E-1,5.687123566E0,6.448141022E0,8.623955772E0
2.815298750E-1,-7.074288940E-1,5.705385590E0,6.443500671E0,8.635425946E0
2.914878750E-1,-7.062313843E-1,6.077062683E0,6.770121460E0,9.124910860E0
3.014458750E-1,-7.358697510E-1,6.489754486E0,7.218289490E0,9.734583748E0
3.114048750E-1,-7.303312683E-1,6.737639008E0,7.472760315E0,1.008817674E1
3.213628750E-1,-6.638694763E-1,6.742728424E0,7.652686157E0,1.022099382E1
3.313218750E-1,-6.137237549E-1,6.619235229E0,7.816146240E0,1.026075406E1
3.412798750E-1,-6.210585022E-1,6.436614990E0,7.987240448E0,1.027675708E1
3.512388750E-1,-6.713539124E-1,6.246360626E0,8.161178741E0,1.029915412E1
3.611968750E-1,-8.354127502E-1,6.191424866E0,8.298742676E0,1.038753033E1
3.711558750E-1,-9.816586304E-1,6.162534943E0,8.320297852E0,1.040037725E1
3.811138750E-1,-1.027912445E0,6.145470428E0,8.299341431E0,1.037798049E1
3.910728750E-1,-9.114546204E-1,6.110443268E0,8.230484619E0,1.029121681E1
4.010308750E-1,-6.279441833E-1,6.082601166E0,8.083490295E0,1.013583574E1
4.109898750E-1,-3.200344849E-1,6.078110504E0,7.952662354E0,1.001452385E1
4.209478750E-1,-9.145980835E-2,6.103108521E0,7.807763672E0,9.910472848E0
4.309058750E-1,3.637435913E-2,6.156098328E0,7.718100128E0,9.872585239E0
4.408648750E-1,6.676116943E-2,6.272705841E0,7.733667755E0,9.957957249E0
4.508228750E-1,1.440005493E-1,6.387517090E0,7.888745270E0,1.015152268E1
4.607818750E-1,2.827619934E-1,6.498586121E0,8.139473877E0,1.041933831E1
4.707398750E-1,4.080514526E-1,6.528523865E0,8.345445557E0,1.060351788E1
4.806988750E-1,4.285588074E-1,6.538852386E0,8.460556183E0,1.070146084E1
4.906568750E-1,3.555107117E-1,6.570137329E0,8.629405060E0,1.085171526E1
5.006158750E-1,3.393443298E-1,6.512357483E0,8.951984253E0,1.107537704E1
5.105738750E-1,4.710704041E-1,6.337071991E0,9.271270294E0,1.123996626E1
5.205328750E-1,6.173162842E-1,6.116131439E0,9.486073608E0,1.130370451E1
5.304908750E-1,7.888595581E-1,6.183790741E0,9.562863922E0,1.141533765E1
5.404498750E-1,8.565188599E-1,6.477180634E0,9.449250183E0,1.148807306E1
5.504078750E-1,8.430468750E-1,6.689738617E0,9.168134766E0,1.138059866E1
5.603668750E-1,6.298901367E-1,6.709347839E0,8.878187714E0,1.114604536E1
5.703248750E-1,1.910028076E-1,6.603068848E0,8.715775452E0,1.093625814E1
5.802828750E-1,-3.610491943E-1,6.392905884E0,8.747359772E0,1.084047532E1
5.902418750E-1,-8.625064087E-1,6.159391479E0,9.000633087E0,1.094044865E1
6.001998750E-1,-1.140178986E0,5.899082794E0,9.328451385E0,1.109590876E1
6.101588750E-1,-1.187779999E0,5.612428894E0,9.574090576E0,1.116124499E1
6.201168750E-1,-1.010847931E0,5.452112274E0,9.713301086E0,1.118461263E1
6.300758750E-1,-6.725514221E-1,5.354964294E0,9.630822601E0,1.103995978E1
6.400338750E-1,-2.749781799E-1,5.258265381E0,9.236692200E0,1.063209531E1
6.499928750E-1,1.811233521E-2,5.198988647E0,8.733887787E0,1.016418255E1
6.599508750E-1,8.053253174E-2,5.194947052E0,8.283773804E0,9.778285575E0
6.699098750E-1,-7.574249268E-2,5.320685577E0,8.129744110E0,9.716386738E0
6.798678750E-1,-3.453318787E-1,5.475613403E0,8.474327545E0,1.009533673E1
6.898268750E-1,-5.010081482E-1,5.441933441E0,9.142837372E0,1.065162541E1
6.997848750E-1,-3.836521912E-1,5.148543549E0,9.885143738E0,1.115216375E1
7.097438750E-1,-6.002517700E-2,4.808301086E0,1.046219376E1,1.151437626E1
7.197018750E-1,3.808081055E-1,4.579576721E0,1.059481796E1,1.154849364E1
7.296608750E-1,7.506889343E-1,4.485272827E0,1.014290771E1,1.111574483E1
7.396188750E-1,7.358697510E-1,4.601131897E0,9.398056641E0,1.048977539E1
7.495768750E-1,2.752775574E-1,4.868625641E0,8.580756226E0,9.869583110E0
7.595358750E-1,-1.833686829E-1,5.058131561E0,7.967631226E0,9.439357304E0
7.694938750E-1,-4.117936707E-1,5.001848602E0,7.641908569E0,9.142583336E0
7.794528750E-1,-2.942880249E-1,4.705764313E0,7.716453552E0,9.042924230E0
7.894108750E-1,-1.347198486E-2,4.390519867E0,8.036787415E0,9.157881750E0
7.993698750E-1,3.614982605E-1,4.257147217E0,8.484955444E0,9.499918542E0
8.093278750E-1,1.056353302E0,4.243525543E0,8.792565765E0,9.820010391E0
8.192868750E-1,1.883533173E0,4.226910095E0,8.712482300E0,9.865181904E0
8.292448750E-1,2.393522644E0,4.331243134E0,8.420888672E0,9.767291526E0
8.392038750E-1,2.502046967E0,4.691244507E0,8.251291351E0,9.815896445E0
8.491618750E-1,2.279609528E0,5.132377167E0,8.287516022E0,1.001103575E1
8.591208750E-1,1.880539398E0,5.319937134E0,8.390501862E0,1.011131451E1
8.690788750E-1,1.391805725E0,5.188360748E0,8.619974670E0,1.015677969E1
8.790368750E-1,7.869136047E-1,4.852608948E0,8.947643280E0,1.020918052E1
8.889958750E-1,2.534230042E-1,4.556225281E0,9.170978851E0,1.024354749E1
8.989538750E-1,-7.319778442E-2,4.524940338E0,9.285640411E0,1.032974157E1
9.089128750E-1,7.334747314E-3,4.672832794E0,9.163793793E0,1.028642488E1
9.188712500E-1,3.360511780E-1,4.913981323E0,8.797505493E0,1.008247220E1
9.288302500E-1,6.741979980E-1,5.228477325E0,8.410709839E0,9.926306366E0
9.387882500E-1,9.529183960E-1,5.625302124E0,8.153245239E0,9.951255468E0
9.487472500E-1,1.159937897E0,6.007457428E0,8.068521423E0,1.012600803E1
9.587052500E-1,1.332828369E0,6.206992493E0,8.046666870E0,1.024948950E1
9.686642500E-1,1.486408997E0,6.187532959E0,8.115673370E0,1.031305629E1
9.786222500E-1,1.623374176E0,6.176306305E0,8.377179565E0,1.053371923E1
9.885812500E-1,1.904938660E0,6.051914978E0,8.623716888E0,1.070621124E1
9.985392500E-1,2.265089722E0,5.734425201E0,8.675209808E0,1.064300376E1
1.008498250E0,2.634970551E0,5.520819397E0,8.626261597E0,1.057520240E1
1.018456250E0,3.177891541E0,5.391638031E0,8.538244629E0,1.058632971E1
1.028414250E0,3.576362915E0,5.221591644E0,8.381071472E0,1.050227356E1
1.038373250E0,3.703598328E0,5.036127319E0,8.246950378E0,1.034849793E1
1.048331250E0,3.503015442E0,4.817132721E0,8.396788788E0,1.029475336E1
1.058290250E0,3.083887024E0,4.554279327E0,8.953181763E0,1.050767734E1
1.068248250E0,2.768492889E0,4.211192780E0,9.734407196E0,1.096163222E1
1.078207250E0,2.603685608E0,3.876339111E0,1.066861450E1,1.164579405E1
1.088165250E0,2.723885651E0,3.806733856E0,1.155911270E1,1.247092066E1
1.098124250E0,2.887794800E0,3.752396851E0,1.192929291E1,1.283463557E1
1.108082250E0,3.193908234E0,3.559897156E0,1.182555862E1,1.275608695E1
1.118041250E0,3.359314270E0,3.394940186E0,1.148756149E1,1.244084725E1
1.127999250E0,3.195405121E0,3.367696838E0,1.095092743E1,1.189431828E1
1.137958250E0,2.912643127E0,3.311862946E0,1.033316208E1,1.123504182E1
1.147916250E0,2.490071869E0,3.293900299E0,9.960287476E0,1.078228008E1
1.157875250E0,1.918710022E0,3.255579987E0,9.770033112E0,1.047539003E1
1.167833250E0,1.282832336E0,3.091221771E0,9.667047272E0,1.023001045E1
1.177791250E0,8.219407654E-1,2.972668304E0,9.864636383E0,1.033554036E1
1.187750250E0,6.429130554E-1,2.923869781E0,1.021191422E1,1.064168895E1
1.197708250E0,6.494993591E-1,2.972518616E0,1.048973648E1,1.092210089E1
1.207667250E0,7.990383911E-1,2.994822235E0,1.072325089E1,1.116223688E1
1.217625250E0,1.119372253E0,2.954256592E0,1.080393311E1,1.125635806E1
1.227584250E0,1.579814758E0,2.928959198E0,1.067774551E1,1.118431339E1
1.237542250E0,1.974543915E0,3.053649902E0,1.041474243E1,1.103133996E1
1.247501250E0,2.282004547E0,3.237467651E0,1.020428009E1,1.094605288E1
1.257459250E0,2.395618286E0,3.377725983E0,1.009830048E1,1.091438007E1
1.267418250E0,2.258353729E0,3.421135712E0,9.939780121E0,1.075190960E1
1.277376250E0,2.046993256E0,3.346141663E0,9.700128479E0,1.046323745E1
1.287335250E0,1.857038269E0,3.192710724E0,9.472152557E0,1.016679236E1
1.297293250E0,1.632654877E0,3.082240448E0,9.242530060E0,9.878771686E0
1.307252250E0,1.396146698E0,2.967279510E0,9.062903595E0,9.637955949E0
1.317210250E0,1.277892609E0,2.864143982E0,8.934320984E0,9.468813110E0
1.327168250E0,1.186582489E0,2.674338684E0,8.812773743E0,9.285744259E0
1.337127250E0,1.210083618E0,2.486479340E0,8.713081055E0,9.141370977E0
1.347085250E0,1.387315063E0,2.398911438E0,8.682544556E0,9.114055032E0
1.357044250E0,1.480271759E0,2.507435760E0,8.696016541E0,9.170558448E0
1.367002250E0,1.444645844E0,2.789299622E0,8.727750549E0,9.275819298E0
1.376961250E0,1.258283386E0,3.054548035E0,8.861272888E0,9.457044886E0
1.386919250E0,1.003363495E0,3.130440216E0,8.978179779E0,9.561072450E0
1.396878250E0,7.441026306E-1,3.063828735E0,8.886420593E0,9.429167843E0
1.406836250E0,5.507048035E-1,2.961291962E0,8.686436462E0,9.193840562E0
1.416795250E0,4.174818420E-1,2.893033905E0,8.528514862E0,9.015514518E0
1.426753250E0,3.579057312E-1,2.851570129E0,8.591683502E0,9.059612250E0
1.436712250E0,3.444337463E-1,2.908152466E0,8.671317902E0,9.152471771E0
1.446670250E0,5.116360474E-1,3.076851654E0,8.795260162E0,9.331955254E0
1.456629250E0,9.232800293E-1,3.323538666E0,8.995094604E0,9.633798951E0
1.466587250E0,1.307980042E0,3.599714355E0,9.288484497E0,1.004712394E1
1.476545250E0,1.571581879E0,3.869453430E0,9.520651703E0,1.039641036E1
1.486504250E0,1.672921143E0,3.903432770E0,9.599537659E0,1.049697937E1
1.496462250E0,1.659449158E0,3.864962769E0,9.663903809E0,1.053957995E1
1.506421250E0,1.556762695E0,3.978277130E0,9.760902100E0,1.065483030E1
1.516379250E0,1.388961639E0,4.134252777E0,9.699230347E0,1.063467582E1
1.526338250E0,1.222358093E0,4.196822662E0,9.601633301E0,1.054982662E1
1.536296250E0,1.019978943E0,4.129762115E0,9.520651703E0,1.042775628E1
1.546255250E0,7.827223206E-1,4.000730438E0,9.478439484E0,1.031791226E1
1.556213250E0,5.294490051E-1,3.807781677E0,9.436227264E0,1.018930334E1
1.566172250E0,2.665956116E-1,3.526217194E0,9.263636169E0,9.915656105E0
1.576130250E0,-5.643264771E-2,3.289709015E0,9.065298615E0,9.643910463E0
1.586089250E0,-4.077520752E-1,3.312162323E0,8.912616119E0,9.516901129E0
1.596047250E0,-6.258485413E-1,3.356021118E0,8.741821289E0,9.384775095E0
1.606006250E0,-7.101232910E-1,3.559747467E0,8.827443237E0,9.544623158E0
1.615964250E0,-5.219645691E-1,3.751049652E0,9.163793793E0,9.915540186E0
1.625923250E0,-5.418731689E-2,3.677103424E0,9.472901001E0,1.016168683E1
1.635881250E0,3.629951477E-1,3.414699097E0,9.702373810E0,1.029213258E1
1.645840250E0,4.174818420E-1,3.373983765E0,9.831255798E0,1.040248279E1
1.655798250E0,1.917512512E-1,3.655099182E0,9.945318604E0,1.059744690E1
1.665756250E0,-1.321751404E-1,3.945046234E0,9.929900665E0,1.068568141E1
1.675715250E0,-3.189866638E-1,4.043541412E0,9.885592804E0,1.068536030E1
1.685673250E0,-2.980302429E-1,3.862567749E0,9.849368134E0,1.058387000E1
1.695632250E0,-1.193019104E-1,3.429817657E0,9.675579529E0,1.026619313E1
1.705590250E0,-1.022373962E-1,3.105591888E0,9.390572205E0,9.891309306E0
1.715549250E0,-3.098556519E-1,3.196602631E0,8.888965302E0,9.451348213E0
1.725507250E0,-5.306465149E-1,3.610941010E0,8.325387268E0,9.090244984E0
1.735466250E0,-5.507048035E-1,4.113895111E0,7.846682739E0,8.876814675E0
1.745424250E0,-2.809657288E-1,4.368515625E0,7.393125916E0,8.591925355E0
1.755383250E0,2.020797729E-2,4.302951965E0,7.219037933E0,8.404184235E0
1.765341250E0,6.421646118E-2,4.146227875E0,7.298971710E0,8.394660051E0
1.775300250E0,-2.077679443E-1,4.027225342E0,7.218289490E0,8.268338082E0
1.785258250E0,-6.756948853E-1,3.932173004E0,6.919361115E0,7.987246481E0
1.795217250E0,-1.034498749E0,3.877087555E0,6.625372467E0,7.745808925E0
1.805175250E0,-1.261875916E0,3.878883820E0,6.468648376E0,7.647318637E0
1.815134250E0,-1.415157166E0,4.004772034E0,6.539002075E0,7.797398091E0
1.825092250E0,-1.408271484E0,4.303700409E0,6.814878387E0,8.182153336E0
1.835051250E0,-1.220262451E0,4.502187653E0,7.104975128E0,8.499376782E0
1.845009250E0,-9.752220154E-1,4.418661346E0,7.368127899E0,8.646671892E0
1.854967250E0,-9.442364502E-1,4.139342194E0,7.356751556E0,8.493970198E0
1.864926250E0,-1.163530426E0,3.825594635E0,7.110513611E0,8.157719116E0
1.874884250E0,-1.530866547E0,3.782633972E0,6.983876953E0,8.088659311E0
1.884843250E0,-1.857637024E0,3.971092072E0,7.007976837E0,8.266324873E0
1.894801250E0,-1.944007416E0,4.209097137E0,7.143445129E0,8.516130099E0
1.904760250E0,-1.632205811E0,4.370461578E0,7.587122498E0,8.906708596E0
1.914718083E0,-1.141077118E0,4.437372437E0,8.188871155E0,9.383493055E0
1.924677083E0,-1.009800110E0,4.397704926E0,8.593030701E0,9.705652039E0
1.934635083E0,-1.371148682E0,4.336931305E0,8.689879303E0,9.808314032E0
1.944594083E0,-1.959125977E0,4.280498657E0,8.532107391E0,9.744624153E0
1.954552083E0,-2.592309265E0,4.174968109E0,8.184829559E0,9.546824653E0
1.964511083E0,-3.109783173E0,4.047433319E0,7.749983826E0,9.279801569E0
1.974469083E0,-3.259322205E0,4.126319275E0,7.464527435E0,9.130655060E0
1.984428083E0,-2.905757446E0,4.499792633E0,7.582182770E0,9.283375228E0
1.994386083E0,-2.172432404E0,4.889432373E0,7.973918152E0,9.602571644E0
2.004345083E0,-1.312620392E0,4.969815216E0,8.410709839E0,9.857082508E0
2.014303083E0,-4.593946838E-1,4.701573029E0,8.596922607E0,9.809327741E0
2.024262083E0,3.742218018E-2,4.387675781E0,8.337362366E0,9.421502555E0
2.034220083E0,-3.457809448E-2,4.385580139E0,7.707472229E0,8.867899242E0
2.044178083E0,-4.673281860E-1,4.769531708E0,7.041507111E0,8.517608275E0
2.054137083E0,-9.574090576E-1,5.182522888E0,6.663393402E0,8.495645192E0
2.064095083E0,-1.143472137E0,5.312752075E0,6.523883514E0,8.490813816E0
2.074054083E0,-9.889933777E-1,5.180726624E0,6.469995575E0,8.347387555E0
2.084012083E0,-8.006849670E-1,4.956642609E0,6.378984833E0,8.117933842E0
2.093971083E0,-7.894583130E-1,4.879403229E0,6.378236389E0,8.069307265E0
2.103929083E0,-7.279362488E-1,4.951253815E0,6.653064880E0,8.325147315E0
2.113888083E0,-4.586462402E-1,4.881049805E0,7.306456146E0,8.798824068E0
2.123846083E0,-6.032455444E-2,4.592000885E0,8.020621033E0,9.242319673E0
2.133805083E0,3.135978699E-1,4.174968109E0,8.456514587E0,9.436171962E0
2.143763083E0,5.559439087E-1,3.881877594E0,8.673263855E0,9.518589874E0
2.153722083E0,6.051914978E-1,3.822301483E0,8.800199890E0,9.613519828E0
2.163680083E0,4.460723877E-1,3.789369965E0,8.849148102E0,9.636686538E0
2.173639083E0,2.010319519E-1,3.632645874E0,8.741372223E0,9.468269020E0
2.183597083E0,8.217910767E-2,3.325484619E0,8.475075989E0,9.104532628E0
2.193556083E0,1.556762695E-2,3.215613098E0,8.176446991E0,8.786051180E0
2.203514083E0,-1.844165039E-1,3.359763336E0,8.172854462E0,8.838414404E0
2.213473083E0,-4.339476013E-1,3.605851593E0,8.685538330E0,9.414300416E0
2.223431083E0,-2.909948730E-1,3.741319885E0,9.453591156E0,1.017116209E1
2.233390083E0,1.712438965E-1,3.673510895E0,1.027747787E1,1.091561076E1
2.243348083E0,4.525090027E-1,3.363954620E0,1.069076843E1,1.121666103E1
2.253306083E0,3.417393494E-1,2.797981567E0,1.066861450E1,1.103470988E1
2.263265083E0,-4.864883423E-2,2.255509644E0,1.022568558E1,1.047159663E1
2.273223083E0,-4.255650330E-1,1.902843018E0,9.466913452E0,9.665628146E0
2.283182083E0,-5.486091614E-1,1.914219360E0,8.507708130E0,8.737637289E0
2.293140083E0,-4.200265503E-1,2.365381165E0,7.895331573E0,8.252739606E0
2.303099083E0,-4.556524658E-1,3.061733093E0,8.167166290E0,8.734096056E0
2.313057083E0,-3.504212952E-1,3.518283691E0,9.094188538E0,9.757324448E0
2.323016083E0,-1.255888367E-1,3.353476410E0,1.009994705E1,1.064286179E1
2.332974083E0,1.586700439E-1,2.777324524E0,1.066217789E1,1.101910818E1
2.342933083E0,5.179229736E-1,2.341730347E0,1.101349731E1,1.127160451E1
2.352891083E0,7.408094788E-1,2.185754700E0,1.109178452E1,1.132934270E1
2.362850083E0,9.355545044E-1,2.242187347E0,1.080752563E1,1.107724138E1
2.372808083E0,1.212328949E0,2.612367554E0,1.068508026E1,1.106639715E1
2.382767083E0,1.201401672E0,3.187471619E0,1.095601685E1,1.147334504E1
2.392725083E0,1.170865173E0,3.445684662E0,1.122276215E1,1.179805315E1
2.402684083E0,1.077908478E0,3.493135986E0,1.149998566E1,1.206704420E1
2.412642083E0,1.038690033E0,3.577710114E0,1.155432266E1,1.214006832E1
2.422601083E0,1.153201904E0,3.631448364E0,1.136167328E1,1.198352667E1
2.432559083E0,1.307530975E0,3.695515137E0,1.116752701E1,1.183554514E1
2.442517083E0,1.400337982E0,3.738924866E0,1.128503265E1,1.197048318E1
2.452476083E0,1.539698181E0,3.657194824E0,1.184771255E1,1.249456031E1
2.462434083E0,1.528471527E0,3.399131470E0,1.248104553E1,1.302562158E1
2.472393083E0,1.409918060E0,3.086880798E0,1.278715897E1,1.322981997E1
2.482351083E0,1.101110229E0,2.850971375E0,1.290690994E1,1.326381566E1
2.492310083E0,6.174659729E-1,2.706970825E0,1.274644363E1,1.304533559E1
2.502268083E0,1.823208618E-1,2.474204865E0,1.251921616E1,1.276266836E1
2.512227083E0,-3.158432007E-2,2.303410034E0,1.237401810E1,1.258662064E1
2.522185083E0,-6.526428223E-2,2.170486450E0,1.229992218E1,1.249013036E1
2.532144083E0,2.963836670E-2,2.094444580E0,1.229034210E1,1.246756133E1
2.542102083E0,2.754272461E-2,2.042502594E0,1.230246689E1,1.247089680E1
2.552061083E0,-3.068618774E-1,1.857786713E0,1.201296890E1,1.215964463E1
2.562019083E0,-7.358697510E-1,1.629062347E0,1.147049698E1,1.160894695E1
2.571978083E0,-1.071022797E0,1.405577087E0,1.081126785E1,1.095473639E1
2.581936083E0,-1.236279144E0,1.249751129E0,1.016371445E1,1.031461853E1
2.591895083E0,-1.278341675E0,1.138532410E0,9.711205444E0,9.860929199E0
2.601853083E0,-1.092877350E0,9.979747009E-1,9.436526642E0,9.551877798E0
2.611812083E0,-5.926176453E-1,1.001118164E0,9.296867065E0,9.369374071E0
2.621770083E0,6.750961304E-2,1.202150116E0,9.406439209E0,9.483186228E0
2.631728083E0,6.725514221E-1,1.529968414E0,9.751771088E0,9.893946033E0
2.641687083E0,1.045426025E0,1.838476868E0,1.048090485E1,1.069215971E1
2.651645083E0,9.638456726E-1,1.920955353E0,1.100975510E1,1.121756548E1
2.661604083E0,6.363267517E-1,1.660347290E0,1.115136063E1,1.129223223E1
2.671562083E0,1.261875916E-1,1.283580780E0,1.095017899E1,1.102587515E1
2.681521083E0,-5.692662048E-1,1.165326691E0,1.058658508E1,1.066573176E1
2.691479083E0,-1.218166809E0,1.158890076E0,1.041174866E1,1.054663295E1
2.701438083E0,-1.635349274E0,1.220561829E0,1.045620621E1,1.065346829E1
2.711396083E0,-1.738335114E0,1.134490814E0,1.053988220E1,1.074234589E1
2.721355083E0,-1.585053864E0,8.969348145E-1,1.062340851E1,1.077839024E1
2.731313083E0,-1.226549377E0,7.131170654E-1,1.054227722E1,1.063731960E1
2.741272083E0,-7.162605286E-1,7.315287781E-1,1.052281769E1,1.057250470E1
2.751230083E0,-8.861572266E-2,9.337582397E-1,1.071531738E1,1.075629043E1
2.761189083E0,2.628533936E-1,1.027912445E0,1.087129303E1,1.092294411E1
2.771147083E0,2.478845215E-1,9.632469177E-1,1.096200439E1,1.100703555E1
2.781106083E0,-1.353186035E-1,7.858657837E-1,1.092802505E1,1.095708117E1
2.791064083E0,-8.680448914E-1,6.730004883E-1,1.079450272E1,1.085024057E1
2.801022083E0,-1.698667603E0,7.090754700E-1,1.066562073E1,1.082329548E1
2.810981083E0,-2.293829956E0,8.860075378E-1,1.059511734E1,1.087672638E1
2.820939083E0,-2.075883179E0,1.034648438E0,1.059676392E1,1.084763540E1
2.830898083E0,-1.153950348E0,1.022823029E0,1.081156723E1,1.092097772E1
2.840856083E0,-3.897894287E-1,8.204438782E-1,1.101005447E1,1.104745959E1
2.850815083E0,1.541793823E-2,8.414002991E-1,1.106364304E1,1.109560226E1
2.860773083E0,3.397933960E-2,1.161135406E0,1.109178452E1,1.115244699E1
2.870732083E0,-1.182540894E-1,1.510059814E0,1.118489090E1,1.128698583E1
2.880690083E0,-1.550775146E-1,1.676064606E0,1.130658783E1,1.143119285E1
2.890649083E0,5.179229736E-2,1.647474060E0,1.135972733E1,1.147868713E1
2.900607083E0,6.255491638E-1,1.566642151E0,1.158710449E1,1.170925574E1
2.910566083E0,1.118324432E0,1.651515656E0,1.194605804E1,1.211141843E1
2.920523958E0,1.307530975E0,1.812580719E0,1.206565933E1,1.227090955E1
2.930482958E0,1.400188293E0,2.044149170E0,1.200892731E1,1.226186805E1
2.940440958E0,1.705553284E0,2.398761749E0,1.184651505E1,1.220667394E1
2.950399958E0,2.102078705E0,2.640958099E0,1.157093811E1,1.205321548E1
2.960357958E0,2.334395599E0,2.845732269E0,1.124970612E1,1.183653170E1
2.970315958E0,2.397264862E0,3.109483795E0,1.095092743E1,1.163351107E1
2.980274958E0,2.555934906E0,3.240910492E0,1.065005310E1,1.142190593E1
2.990232958E0,2.809657288E0,3.143313446E0,1.031460068E1,1.114296104E1
3.000191958E0,2.956950989E0,2.797083435E0,9.970166931E0,1.076900476E1
3.010149958E0,2.883004761E0,2.312241669E0,9.728868713E0,1.040716409E1
3.020108958E0,2.356848907E0,1.952090607E0,9.782606964E0,1.025011188E1
3.030066958E0,1.420246582E0,1.753603363E0,1.009785141E1,1.034692361E1
3.040025958E0,5.445675659E-1,1.603315887E0,1.054586975E1,1.068094305E1
3.049983958E0,-2.365081787E-2,1.459165649E0,1.103011276E1,1.112623527E1
3.059942958E0,-1.233435059E-1,1.376238098E0,1.141271713E1,1.149605834E1
3.069900958E0,8.487350464E-2,1.344055023E0,1.165970352E1,1.173722172E1
3.079859958E0,4.502636719E-1,1.332828369E0,1.176673096E1,1.185053274E1
3.089817958E0,8.295748901E-1,1.298998718E0,1.161150375E1,1.171335185E1
3.099776958E0,1.084345093E0,1.162332916E0,1.116767670E1,1.128024046E1
3.109734958E0,1.229692841E0,1.015637970E0,1.059347076E1,1.071285619E1
3.119693958E0,1.345402222E0,9.527687073E-1,1.003887405E1,1.017334103E1
3.129651958E0,1.684896240E0,1.059347076E0,9.695338440E0,9.897508729E0
3.139609958E0,2.271526337E0,1.400487671E0,9.756411438E0,1.011477937E1
3.149568958E0,2.783312073E0,1.757495270E0,1.008692413E1,1.061045023E1
3.159526958E0,3.018922119E0,1.974094849E0,1.031220566E1,1.092485820E1
3.169485958E0,3.076252899E0,1.989213409E0,1.026265869E1,1.089690164E1
3.179443958E0,2.901715851E0,1.844464417E0,1.004546036E1,1.061759284E1
3.189402958E0,2.774480438E0,1.709744568E0,9.775721283E0,1.030464433E1
3.199360958E0,2.815644836E0,1.600771179E0,9.460476837E0,9.999547300E0
3.209319958E0,2.723735962E0,1.369352417E0,9.062753906E0,9.561766155E0
3.219277958E0,2.389031982E0,1.057251434E0,8.896150360E0,9.271825367E0
3.229236958E0,1.876497803E0,6.849755859E-1,9.155860291E0,9.371243952E0
3.239194958E0,1.468296661E0,3.918850708E-1,9.702673187E0,9.820964106E0
3.249153958E0,1.162033539E0,3.317102051E-1,1.030172745E1,1.037236434E1
3.259111958E0,1.072519684E0,3.923341370E-1,1.081486038E1,1.087499102E1
3.269070958E0,1.372346191E0,5.266049194E-1,1.120749390E1,1.130347585E1
3.279028958E0,2.047442322E0,7.128176880E-1,1.143008102E1,1.163386786E1
3.288987958E0,2.850671997E0,8.827143860E-1,1.144085861E1,1.182365262E1
3.298945958E0,3.551963654E0,9.443861389E-1,1.128667923E1,1.187002270E1
3.308903958E0,3.845353546E0,1.073417816E0,1.113339798E1,1.182757457E1
3.318862958E0,3.739224243E0,1.055754547E0,1.087757996E1,1.155067796E1
3.328820958E0,3.154989166E0,6.336323547E-1,1.047836014E1,1.096136295E1
3.338779958E0,2.365381165E0,7.110214233E-2,1.020218445E1,1.047304402E1
3.348737958E0,1.619931335E0,-3.917353821E-1,1.004441254E1,1.018174137E1
3.358696958E0,1.022224274E0,-6.682104492E-1,9.979447632E0,1.005389590E1
3.368654958E0,7.485932922E-1,-5.405259705E-1,1.022314087E1,1.026475375E1
3.378613958E0,9.434880066E-1,2.320175171E-2,1.065214874E1,1.069387585E1
3.388571958E0,1.522633667E0,5.372328186E-1,1.101828735E1,1.113596375E1
3.398530958E0,2.126927032E0,7.635621643E-1,1.110331055E1,1.133094660E1
3.408488958E0,2.504441986E0,9.265731812E-1,1.083881058E1,1.116291101E1
3.418447958E0,2.614014130E0,1.068627777E0,1.042522064E1,1.080093795E1
3.428405958E0,2.422412567E0,1.125359802E0,1.003812561E1,1.038741946E1
3.438364958E0,2.065554657E0,1.098266144E0,9.721683655E0,9.999191850E0
3.448322958E0,1.734143829E0,9.056167603E-1,9.423803101E0,9.624731758E0
3.458280958E0,1.650168457E0,6.661148071E-1,9.279802551E0,9.448888837E0
3.468239958E0,1.766177216E0,4.724176025E-1,9.404642944E0,9.580702963E0
3.478197958E0,1.869612122E0,4.950205994E-1,9.535470886E0,9.729629998E0
3.488156958E0,1.814826050E0,7.035369873E-1,9.545949097E0,9.742366347E0
3.498114958E0,1.735341339E0,8.399034119E-1,9.408834229E0,9.604322404E0
3.508073958E0,1.683399353E0,9.448352051E-1,9.244925079E0,9.444320339E0
3.518031958E0,1.725162506E0,1.079105988E0,9.044042816E0,9.270133001E0
3.527990958E0,1.706002350E0,1.159937897E0,8.926387482E0,9.161675252E0
3.537948958E0,1.529219971E0,1.182540894E0,8.947343903E0,9.153790450E0
3.547907958E0,1.285975800E0,1.090781708E0,9.013955383E0,9.170328791E0
3.557865958E0,1.051563263E0,9.599537659E-1,9.104666748E0,9.215327076E0
3.567824958E0,9.416917419E-1,8.256829834E-1,9.361682281E0,9.445085011E0
3.577782958E0,9.431886292E-1,6.783892822E-1,9.688452759E0,9.757865221E0
3.587741958E0,9.294172668E-1,5.707630920E-1,9.917027435E0,9.976824150E0
3.597699958E0,8.210426331E-1,5.409750366E-1,9.825118561E0,9.874194637E0
3.607657958E0,7.539820862E-1,6.637197876E-1,9.586065674E0,9.638551138E0
3.617616958E0,7.753875732E-1,9.967771912E-1,9.404193878E0,9.488606492E0
3.627574958E0,7.653584290E-1,1.344803467E0,9.394913177E0,9.521484312E0
3.637533958E0,7.545808411E-1,1.451381836E0,9.464967499E0,9.605285588E0
3.647491958E0,8.080197144E-1,1.356030121E0,9.512867889E0,9.642944002E0
3.657450958E0,8.801696777E-1,1.143023071E0,9.445657654E0,9.555189633E0
3.667408958E0,8.433462524E-1,9.692344666E-1,9.358688507E0,9.446464890E0
3.677367958E0,5.310955811E-1,9.472302246E-1,9.269024963E0,9.332423661E0
3.687325958E0,2.154020691E-1,9.827064514E-1,9.110055542E0,9.165436269E0
3.697284958E0,-3.442840576E-3,1.020877075E0,8.954678650E0,9.012683928E0
3.707242958E0,-1.820214844E-1,9.734257507E-1,8.846453705E0,8.901709536E0
3.717201958E0,-3.468287659E-1,9.159452820E-1,8.913065186E0,8.966714948E0
3.727159958E0,-5.789959717E-1,9.276210022E-1,9.012757874E0,9.078850233E0
3.737118958E0,-8.009843445E-1,9.940827942E-1,9.049132233E0,9.138740104E0
3.747076958E0,-8.379574585E-1,1.031954041E0,8.966354370E0,9.064359466E0
3.757034958E0,-7.637118530E-1,1.107846222E0,8.861871643E0,8.963445100E0
3.766993958E0,-6.941065979E-1,1.143921204E0,8.843310242E0,8.943963088E0
3.776951958E0,-7.045848083E-1,1.188678131E0,8.820108490E0,8.927693388E0
3.786910958E0,-7.949967957E-1,1.301094360E0,8.841513977E0,8.972025181E0
3.796868958E0,-9.562115479E-1,1.468745728E0,8.957672424E0,9.127510602E0
3.806827958E0,-1.070873108E0,1.606010284E0,9.044042816E0,9.247742898E0
3.816785958E0,-9.879455566E-1,1.539698181E0,9.109307098E0,9.291188445E0
3.826744958E0,-9.404942322E-1,1.408421173E0,9.300309906E0,9.453250444E0
3.836702958E0,-1.141376495E0,1.456920319E0,9.485175476E0,9.664052511E0
3.846661958E0,-1.509011993E0,1.666185150E0,9.410031738E0,9.674812012E0
3.856619958E0,-1.670825500E0,1.827250214E0,9.137149200E0,9.466678230E0
3.866578958E0,-1.636995850E0,1.825304260E0,8.820707245E0,9.155127927E0
3.876536958E0,-1.462009735E0,1.646575928E0,8.661737823E0,8.937247164E0
3.886495958E0,-1.281934204E0,1.532064056E0,8.751551056E0,8.976648676E0
3.896453958E0,-1.225351868E0,1.638941803E0,9.004075928E0,9.233688361E0
3.906412958E0,-1.309177551E0,1.922003174E0,9.079818420E0,9.372894143E0
3.916371000E0,-1.595382385E0,2.293829956E0,9.024433594E0,9.447079046E0
3.926329000E0,-1.842518463E0,2.502196655E0,8.986861725E0,9.508919289E0
3.936288000E0,-2.021845551E0,2.448907471E0,9.042845306E0,9.584260977E0
3.946246000E0,-2.063608704E0,2.222727814E0,9.142537994E0,9.632497121E0
3.956205000E0,-2.007774811E0,1.990410919E0,9.192384338E0,9.617319021E0
3.966163000E0,-1.794169006E0,1.839375000E0,9.091344452E0,9.447480445E0
3.976122000E0,-1.237776031E0,1.716480560E0,8.916058960E0,9.163760276E0
3.986080000E0,-5.233117676E-1,1.809586945E0,9.022936707E0,9.217475084E0
3.996039000E0,1.766326904E-2,2.197729797E0,9.445807343E0,9.698123767E0
4.005997000E0,1.809736633E-1,2.925067291E0,1.017224670E1,1.058599892E1
4.015956000E0,1.901046753E-2,3.713627472E0,1.091230774E1,1.152691852E1
4.025914000E0,-2.483335876E-1,3.962859192E0,1.113429611E1,1.182110284E1
4.035873000E0,-5.438191223E-1,3.588188324E0,1.086216202E1,1.145239706E1
4.045831000E0,-8.771759033E-1,2.859952698E0,1.010743149E1,1.054082247E1
4.055790000E0,-1.522783356E0,2.265987854E0,9.076674957E0,9.478375303E0
4.065748000E0,-2.213147736E0,2.064955902E0,8.191415863E0,8.732775024E0
4.075706000E0,-2.763553162E0,2.277663574E0,7.689509583E0,8.482542959E0
4.085665000E0,-2.926863556E0,2.669249268E0,7.569010162E0,8.542911492E0
4.095623000E0,-2.658621368E0,3.126548309E0,7.656428375E0,8.687028685E0
4.105582000E0,-2.181264038E0,3.511398010E0,7.868537292E0,8.888290494E0
4.115540000E0,-1.745819550E0,3.737577667E0,8.239316254E0,9.214320650E0
4.125499000E0,-1.478475494E0,3.782484283E0,8.593330078E0,9.504651439E0
4.135457000E0,-1.450184326E0,3.664230194E0,8.987909546E0,9.813874643E0
4.145416000E0,-1.609902191E0,3.473676453E0,9.362281036E0,1.011486626E1
4.155374000E0,-1.865869904E0,3.218457184E0,9.422156525E0,1.013000349E1
4.165333000E0,-2.065105591E0,2.948119354E0,9.235794067E0,9.912414483E0
4.175291000E0,-2.120939484E0,2.681972809E0,8.930878143E0,9.563051127E0
4.185250000E0,-2.184706879E0,2.588417358E0,8.389154663E0,9.047141235E0
4.195208000E0,-2.381098480E0,2.740052032E0,7.661218414E0,8.477722731E0
4.205167000E0,-2.614163818E0,3.056493988E0,6.993307343E0,8.067363606E0
4.215125000E0,-2.736309814E0,3.476520538E0,6.583160248E0,7.931682375E0
4.225083000E0,-2.598895569E0,3.824546814E0,6.664890289E0,8.111854232E0
4.235042000E0,-2.069446564E0,3.874991913E0,7.462282104E0,8.659320159E0
4.245000000E0,-1.440753937E0,3.499273224E0,8.879983978E0,9.652709488E0
4.254959000E0,-1.215771790E0,2.783312073E0,1.020128632E1,1.064383247E1
4.264917000E0,-1.568438416E0,1.950294342E0,1.093595856E1,1.121868248E1
4.274876000E0,-2.123933258E0,1.378782806E0,1.116213821E1,1.144576184E1
4.284834000E0,-2.716550903E0,1.287322998E0,1.117680771E1,1.157401745E1
4.294793000E0,-3.100502472E0,1.399439850E0,1.148217270E1,1.197546815E1
4.304751000E0,-2.912044373E0,1.353635101E0,1.180295563E1,1.223201095E1
4.314710000E0,-2.386786652E0,9.702822876E-1,1.179891403E1,1.207694376E1
4.324668000E0,-1.588197327E0,4.688250732E-1,1.115674942E1,1.127897271E1
4.334627000E0,-8.732839966E-1,4.794529724E-1,1.000309845E1,1.005258567E1
4.344585000E0,-6.053411865E-1,1.000070343E0,8.916657715E0,8.992961884E0
4.354543000E0,-5.966592407E-1,1.570983124E0,8.281229095E0,8.450014530E0
4.364502000E0,-5.295986938E-1,1.795366516E0,8.079149323E0,8.293157992E0
4.374460000E0,-2.255809021E-1,1.677860870E0,8.380472717E0,8.549761798E0
4.384419000E0,2.462379456E-1,1.315314789E0,8.787626038E0,8.888928929E0
4.394377000E0,4.647834778E-1,1.008303223E0,9.195677490E0,9.262460989E0
4.404336000E0,2.390528870E-1,9.044192505E-1,9.561666412E0,9.607319347E0
4.414294000E0,7.080276489E-2,1.009949799E0,9.936037903E0,9.987485211E0
4.424253000E0,-1.194515991E-1,1.121617584E0,1.024020538E1,1.030214060E1
4.434211000E0,-1.799258423E-1,1.308728485E0,1.044527893E1,1.052848496E1
4.444170000E0,-2.679428101E-2,1.496737518E0,1.070753357E1,1.081167037E1
4.454128000E0,1.014889526E-1,1.655706940E0,1.093146790E1,1.105661141E1
4.464087000E0,2.847079468E-1,1.689985657E0,1.098266144E1,1.111557297E1
4.474045000E0,6.701564026E-1,1.717827759E0,1.117665802E1,1.132774145E1
4.484004000E0,1.166224823E0,1.832339630E0,1.138277939E1,1.158814979E1
4.493962000E0,1.541195068E0,1.859433289E0,1.124446701E1,1.150090487E1
4.503920000E0,1.651515656E0,1.960024109E0,1.086126389E1,1.115958116E1
4.513879000E0,1.506167908E0,2.324067078E0,1.066696793E1,1.102061860E1
4.523837000E0,1.253643036E0,2.716401215E0,1.077758789E1,1.118511766E1
4.533796000E0,1.024170227E0,2.860551453E0,1.102562210E1,1.143660885E1
4.543754000E0,9.503736877E-1,2.881358185E0,1.118728592E1,1.159141067E1
4.553713000E0,9.779164124E-1,2.932102661E0,1.123039627E1,1.164797609E1
4.563671000E0,1.113833771E0,3.195554810E0,1.111678253E1,1.162045826E1
4.573630000E0,1.094972992E0,3.473826141E0,1.110375961E1,1.168588514E1
4.583588000E0,1.113983459E0,3.459755402E0,1.132694550E1,1.189582115E1
4.593547000E0,1.181493073E0,3.171005859E0,1.180325500E1,1.227876349E1
4.603505000E0,1.209335175E0,2.775677948E0,1.262774048E1,1.298563473E1
4.613464000E0,1.046922913E0,2.525548096E0,1.351255051E1,1.378635057E1
4.623422000E0,8.237370300E-1,2.401306458E0,1.428479462E1,1.450862408E1
4.633381000E0,6.747967529E-1,2.300715637E0,1.481005234E1,1.500287617E1
4.643339000E0,7.128176880E-1,2.158810730E0,1.490121277E1,1.507364305E1
4.653297000E0,9.524693298E-1,1.912572784E0,1.447789307E1,1.463470260E1
4.663256000E0,1.154998169E0,1.691931610E0,1.382944153E1,1.398034715E1
4.673214000E0,1.365909576E0,1.837429047E0,1.349189346E1,1.368477416E1
4.683173000E0,1.540147247E0,2.160307617E0,1.330927322E1,1.357113615E1
4.693131000E0,1.766326904E0,2.507585449E0,1.302306839E1,1.337939482E1
4.703090000E0,2.162852325E0,2.793640594E0,1.253702911E1,1.302533903E1
4.713048000E0,2.447859650E0,2.980003052E0,1.196686478E1,1.257291882E1
4.723007000E0,2.438728638E0,2.961890717E0,1.135793106E1,1.198844410E1
4.732965000E0,2.050735474E0,2.864443359E0,1.071846085E1,1.128255089E1
4.742924000E0,1.465452576E0,2.759960632E0,1.014949402E1,1.061965926E1
4.752882000E0,8.869056702E-1,2.629432068E0,9.727371826E0,1.011544746E1
4.762841000E0,3.195854187E-1,2.449805603E0,9.450298004E0,9.767897148E0
4.772799000E0,-1.172062683E-1,2.260299683E0,9.418114929E0,9.686257316E0
4.782758000E0,-4.228706360E-1,1.972597961E0,9.851763153E0,1.005620204E1
4.792716000E0,-5.189707947E-1,1.666634216E0,1.027178970E1,1.041905293E1
4.802674000E0,-1.555265808E-1,1.414857788E0,1.056847275E1,1.066389363E1
4.812633000E0,4.046086121E-1,1.369951172E0,1.062206131E1,1.071767982E1
4.822591000E0,7.285350037E-1,1.551523590E0,1.041279648E1,1.055292941E1
4.832550000E0,7.825726318E-1,1.785037994E0,1.016206787E1,1.034728969E1
4.842508000E0,6.245013428E-1,1.923050995E0,1.005084915E1,1.025220443E1
4.852467000E0,3.462300110E-1,1.930834808E0,1.014365616E1,1.033159032E1
4.862425000E0,1.107696533E-2,1.848356323E0,1.029648834E1,1.046108101E1
4.872384000E0,-2.918930054E-1,1.723815308E0,1.026161087E1,1.040948598E1
4.882342000E0,-4.577481079E-1,1.589095459E0,1.005983047E1,1.019484904E1
4.892301000E0,-3.906875610E-1,1.615290985E0,9.772128754E0,9.912431695E0
4.902259000E0,3.592529297E-3,1.793420563E0,9.703122253E0,9.867469366E0
4.912218000E0,6.408174133E-1,2.133812714E0,9.921368408E0,1.016844898E1
4.922176333E0,1.251846771E0,2.562221832E0,1.020323227E1,1.059424607E1
4.932134333E0,1.709744568E0,2.868035889E0,1.055724609E1,1.107268267E1
4.942093333E0,1.992955627E0,3.009791107E0,1.084135529E1,1.142653487E1
4.952051333E0,1.972448273E0,2.989583130E0,1.095586716E1,1.152645586E1
4.962010333E0,1.746717682E0,2.921025696E0,1.096948883E1,1.148534279E1
4.971968333E0,1.318158875E0,2.954705658E0,1.092787537E1,1.139676657E1
4.981927333E0,8.975335693E-1,2.928659821E0,1.078357544E1,1.121017904E1
4.991885333E0,6.206094360E-1,2.882106628E0,1.064765808E1,1.104827214E1
5.001844333E0,6.167175293E-1,2.807861023E0,1.059167450E1,1.097488008E1
5.011802333E0,8.649014282E-1,2.684068451E0,1.051982391E1,1.089123377E1
5.021761333E0,1.065184937E0,2.639610901E0,1.050964508E1,1.088828749E1
5.031719333E0,1.016536102E0,2.643502808E0,1.056742493E1,1.094038036E1
5.041678333E0,6.545887756E-1,2.563569031E0,1.063792831E1,1.096202041E1
5.051636333E0,4.842430115E-1,2.440973969E0,1.071786209E1,1.100297292E1
5.061595333E0,7.571255493E-1,2.343676300E0,1.078237793E1,1.106009636E1
5.071553333E0,1.141077118E0,2.230212250E0,1.069825287E1,1.098765298E1
5.081511333E0,1.482217712E0,2.190544739E0,1.055589890E1,1.088220828E1
5.091470333E0,1.554667053E0,2.223625946E0,1.033226395E1,1.068256431E1
5.101428333E0,1.594035187E0,2.192490692E0,1.018062927E1,1.053532989E1
5.111387333E0,1.772464142E0,2.152673492E0,1.008213409E1,1.046064339E1
5.121345333E0,2.154769135E0,2.104473724E0,1.007405090E1,1.051467267E1
5.131304333E0,2.618654480E0,2.025438080E0,1.033570679E1,1.085295285E1
5.141262333E0,2.651585999E0,2.117496643E0,1.073747131E1,1.126090541E1
5.151221333E0,2.529290314E0,2.148033142E0,1.102801712E1,1.151644552E1
5.161179333E0,2.487676849E0,2.020498352E0,1.123593475E1,1.168405664E1
5.171138333E0,2.517315216E0,1.860331421E0,1.130329468E1,1.172869044E1
5.181096333E0,2.710114288E0,1.640887756E0,1.120749390E1,1.164667985E1
5.191055333E0,3.022814026E0,1.416953430E0,1.103190903E1,1.152597842E1
5.201013333E0,3.351380768E0,1.276545410E0,1.094464050E1,1.151722523E1
5.210971333E0,3.783681793E0,1.117725677E0,1.095601685E1,1.164473545E1
5.220930333E0,4.206851807E0,9.398954773E-1,1.103789658E1,1.184973276E1
5.230888333E0,4.384382629E0,8.574169922E-1,1.124416763E1,1.209914380E1
5.240847333E0,4.157604218E0,9.746232605E-1,1.157108780E1,1.233392217E1
5.250805333E0,3.993545380E0,1.116677856E0,1.181567917E1,1.252220621E1
5.260764333E0,4.025279388E0,1.043031006E0,1.173439819E1,1.244937303E1
5.270722333E0,4.094734955E0,8.655001831E-1,1.129775620E1,1.204803884E1
5.280681333E0,4.246219940E0,8.267308044E-1,1.075393707E1,1.159142054E1
5.290639333E0,4.267924805E0,9.602531433E-1,1.044183609E1,1.132118409E1
5.300598333E0,4.210594025E0,1.176104279E0,1.043524979E1,1.131400731E1
5.310556333E0,4.273014221E0,1.273701324E0,1.052191956E1,1.142767504E1
5.320515333E0,4.192032623E0,1.085991669E0,1.053883438E1,1.139383805E1
5.330473333E0,4.041894836E0,7.792794800E-1,1.064720901E1,1.141522011E1
5.340432333E0,3.807182922E0,5.295986938E-1,1.081725540E1,1.147990118E1
5.350390333E0,3.639681244E0,3.607498169E-1,1.095646591E1,1.155082531E1
5.360348333E0,3.669469299E0,1.902543640E-1,1.098535583E1,1.158357650E1
5.370307333E0,3.759581909E0,5.239105225E-2,1.094613739E1,1.157389842E1
5.380265333E0,3.870201874E0,4.819976807E-2,1.071157516E1,1.138940860E1
5.390224333E0,3.884422302E0,1.939965820E-1,1.043165726E1,1.113309680E1
5.400182333E0,3.877237244E0,4.285588074E-1,1.015802628E1,1.088127424E1
5.410141333E0,3.844605103E0,6.420149231E-1,1.004980133E1,1.077922438E1
5.420099333E0,3.668271790E0,6.589297485E-1,1.002270767E1,1.069322568E1
5.430058333E0,3.244802399E0,3.811074829E-1,9.976304169E0,1.049764880E1
5.440016333E0,2.566862183E0,-1.080752563E-1,1.002210892E1,1.034616494E1
5.449975333E0,1.899549866E0,-4.725672913E-1,1.018302429E1,1.036945482E1
5.459933333E0,1.568737793E0,-7.223977661E-1,1.041025177E1,1.055254181E1
5.469892333E0,1.567091217E0,-8.964857483E-1,1.048988617E1,1.064411450E1
5.479850333E0,1.776805115E0,-8.622070313E-1,1.032597702E1,1.051314600E1
5.489808333E0,2.011816406E0,-4.647834778E-1,1.009800110E1,1.030694208E1
5.499767333E0,2.173779602E0,1.101708984E-1,9.921518097E0,1.015745917E1
5.509725333E0,2.273172913E0,4.712200928E-1,9.667047272E0,9.941889479E0
5.519684333E0,2.321672058E0,6.048921204E-1,9.460327148E0,9.759807651E0
5.529642333E0,2.423161011E0,6.988966370E-1,9.337432709E0,9.672011961E0
5.539601333E0,2.356399841E0,5.093907166E-1,9.264833679E0,9.573361072E0
5.549559333E0,1.975741425E0,1.475930786E-1,9.223818970E0,9.434202366E0
5.559518333E0,1.448388062E0,-1.781295776E-1,9.166188812E0,9.281625691E0
5.569476333E0,9.243278503E-1,-3.561094666E-1,9.059311066E0,9.113304171E0
5.579435333E0,5.810916138E-1,-3.820056152E-1,9.062604218E0,9.089245896E0
5.589393333E0,3.159928894E-1,-2.309696960E-1,9.197324066E0,9.205648727E0
5.599352333E0,1.399589539E-1,1.092727661E-2,9.284442902E0,9.285504182E0
5.609310333E0,1.592687988E-1,1.889071655E-1,9.273216248E0,9.276507535E0
5.619268333E0,3.083587646E-1,3.695814514E-1,9.267079010E0,9.279570516E0
5.629227333E0,5.387297058E-1,4.975653076E-1,9.355095978E0,9.383795697E0
5.639185333E0,8.084687805E-1,4.216731262E-1,9.400152283E0,9.444273023E0
5.649144333E0,9.467811584E-1,2.112107849E-1,9.245074768E0,9.295827668E0
5.659102333E0,1.029109955E0,4.131408691E-2,9.029972076E0,9.088518573E0
5.669061333E0,8.502319336E-1,-2.020797729E-2,8.966204681E0,9.006449305E0
5.679019333E0,3.793112183E-1,-1.158590698E-1,8.939859467E0,8.948652837E0
5.688978333E0,-1.386117554E-1,-3.032693481E-1,8.835526428E0,8.841816147E0
5.698936333E0,-6.333329773E-1,-2.995271301E-1,8.696016541E0,8.724192274E0
5.708895333E0,-8.756790161E-1,-1.945953369E-2,8.571774902E0,8.616409774E0
5.718853333E0,-6.363267517E-1,5.016069031E-1,8.632698212E0,8.670640094E0
5.728812333E0,-2.659968567E-1,9.593550110E-1,8.852441254E0,8.908245198E0
5.738770333E0,-8.592132568E-2,1.162332916E0,9.024283905E0,9.099236247E0
5.748728333E0,5.463638306E-2,1.209185486E0,9.083410950E0,9.163703899E0
5.758687333E0,1.152603149E-1,1.298250275E0,8.990903320E0,9.084882015E0
5.768645333E0,1.302291870E-2,1.477128296E0,8.822054443E0,8.944871279E0
5.778604333E0,-2.598596191E-1,1.656605072E0,8.711733856E0,8.871650025E0
5.788562333E0,-6.599775696E-1,1.738933868E0,8.653355255E0,8.850989694E0
5.798521333E0,-1.037941589E0,1.764680328E0,8.727002106E0,8.963926883E0
5.808479333E0,-1.275198212E0,1.832639008E0,9.026529236E0,9.298544308E0
5.818438333E0,-1.316811676E0,1.850302277E0,9.430239716E0,9.699847040E0
5.828396333E0,-1.335373077E0,1.732646942E0,9.628726959E0,9.874090821E0
5.838355333E0,-1.296454010E0,1.505718842E0,9.580976257E0,9.784839716E0
5.848313333E0,-1.378184052E0,1.410816193E0,9.439221039E0,9.643064214E0
5.858272333E0,-1.617536316E0,1.526375885E0,9.315578156E0,9.577381868E0
5.868230333E0,-1.868264923E0,1.827998657E0,9.254205780E0,9.616252780E0
5.878189333E0,-1.955683136E0,2.235750732E0,9.289981384E0,9.753308771E0
5.888147333E0,-1.786983948E0,2.458188171E0,9.442214813E0,9.919244996E0
5.898105333E0,-1.484912109E0,2.513123932E0,9.790690155E0,1.021657328E1
5.908064333E0,-1.243613892E0,2.487826538E0,1.011296997E1,1.048847072E1
5.918021833E0,-1.242117004E0,2.370171204E0,1.004321503E1,1.039359102E1
5.927980833E0,-1.575174408E0,2.334245911E0,9.762848053E0,1.016086022E1
5.937938833E0,-2.043251038E0,2.513572998E0,9.385931854E0,9.929181275E0
5.947897833E0,-2.468067627E0,2.742147675E0,8.909622345E0,9.643241261E0
5.957855833E0,-2.683170319E0,2.749781799E0,8.641978912E0,9.457510371E0
5.967814833E0,-2.545307007E0,2.602488098E0,8.647517395E0,9.382488431E0
5.977772833E0,-2.001338196E0,2.457888794E0,8.920399933E0,9.466789681E0
5.987731833E0,-1.448537750E0,2.313139801E0,9.345665588E0,9.736033209E0
5.997689833E0,-1.118923187E0,2.226919098E0,9.581575012E0,9.900390774E0
6.007647833E0,-1.121168518E0,2.159559174E0,9.389075317E0,9.699249970E0
6.017606833E0,-1.479523315E0,2.185904388E0,8.860823822E0,9.245613340E0
6.027564833E0,-2.173180847E0,2.441273346E0,8.358169098E0,8.974492811E0
6.037523833E0,-2.973267059E0,2.729124756E0,8.361162872E0,9.284259988E0
6.047481833E0,-3.448828125E0,2.956202545E0,8.894952850E0,9.987679167E0
6.057440833E0,-3.349285126E0,2.896776123E0,9.604028320E0,1.057574502E1
6.067398833E0,-2.776426392E0,2.524051208E0,1.017898270E1,1.084855137E1
6.077357833E0,-2.253264313E0,2.028731232E0,1.040411453E1,1.083690683E1
6.087315833E0,-2.308499451E0,1.811682587E0,1.028256729E1,1.069310776E1
6.097274833E0,-2.666405182E0,1.943708038E0,9.774673462E0,1.031658659E1
6.107232833E0,-3.034040680E0,2.311493225E0,9.250164185E0,1.000569544E1
6.117191833E0,-3.380869446E0,2.664608917E0,8.885672150E0,9.873479045E0
6.127149833E0,-3.367098083E0,2.693498840E0,8.585995331E0,9.607892658E0
6.137108833E0,-2.984044647E0,2.390379181E0,8.288563843E0,9.127909162E0
6.147066833E0,-2.268682251E0,2.035766602E0,8.208480377E0,8.756164395E0
6.157024833E0,-1.435065765E0,1.932930450E0,8.627908173E0,8.957479183E0
6.166983833E0,-8.777746582E-1,2.107018433E0,9.391021271E0,9.664434569E0
6.176941833E0,-7.915539551E-1,2.095642090E0,9.870474243E0,1.012148878E1
6.186900833E0,-1.488654327E0,1.835183716E0,9.780211945E0,1.006163688E1
6.196858833E0,-2.621199188E0,1.584006042E0,9.376651154E0,9.864144524E0
6.206817833E0,-3.541186066E0,1.465153198E0,8.992250519E0,9.774826957E0
6.216775833E0,-3.911815338E0,1.452729034E0,8.861123199E0,9.794499744E0
6.226734833E0,-3.813918915E0,1.212029572E0,8.817863159E0,9.683475815E0
6.236692833E0,-3.248095551E0,1.040785675E0,8.697214050E0,9.342103177E0
6.246651833E0,-2.500550079E0,1.321152649E0,8.816815338E0,9.259288727E0
6.256609833E0,-1.802401886E0,1.855541382E0,9.280850372E0,9.634618312E0
6.266568833E0,-1.395398254E0,2.257455597E0,9.781559143E0,1.013519321E1
6.276526833E0,-1.128353577E0,2.294728088E0,1.019754410E1,1.051327087E1
6.286484833E0,-9.307644653E-1,2.021097107E0,1.055949142E1,1.079138616E1
6.296443833E0,-9.445358276E-1,1.638642426E0,1.065918411E1,1.082568718E1
6.306401833E0,-8.671467590E-1,1.123114471E0,1.025966492E1,1.035731885E1
6.316360833E0,-8.219407654E-1,7.141648865E-1,9.667346649E0,9.728474153E0
6.326318833E0,-1.352287903E0,7.827223206E-1,9.033714294E0,9.167842208E0
6.336277833E0,-1.909878387E0,1.254092102E0,8.878038025E0,9.167330125E0
6.346235833E0,-2.404749298E0,1.743723907E0,9.245224457E0,9.710693462E0
6.356194833E0,-2.423909454E0,2.049238586E0,1.006985962E1,1.055825689E1
6.366152833E0,-1.761836243E0,2.156116333E0,1.099044525E1,1.133767134E1
6.376111833E0,-5.525010681E-1,2.058818665E0,1.168619843E1,1.187902460E1
6.386069833E0,4.231700134E-1,1.986069946E0,1.232042953E1,1.248665410E1
6.396028833E0,7.141648865E-1,1.732197876E0,1.251727020E1,1.265672131E1
6.405986833E0,3.523672485E-1,1.454674988E0,1.218511093E1,1.227669216E1
6.415944833E0,-9.714797974E-2,1.611548767E0,1.180609909E1,1.191597679E1
6.425903833E0,-2.059716797E-1,2.161355438E0,1.197210388E1,1.216738070E1
6.435861833E0,2.484832764E-2,2.788850555E0,1.272518784E1,1.302722957E1
6.445820833E0,5.459147644E-1,3.071462860E0,1.325119400E1,1.361345105E1
6.455778833E0,1.195563812E0,2.947969666E0,1.326795914E1,1.364399640E1
6.465737833E0,1.498384094E0,2.858755188E0,1.302621185E1,1.342012784E1
6.475695833E0,1.552272034E0,3.098706207E0,1.263851807E1,1.310510082E1
6.485654833E0,1.361119537E0,3.545527039E0,1.230351471E1,1.287633032E1
6.495612833E0,1.336271210E0,3.835923157E0,1.208511887E1,1.274951078E1
6.505571833E0,1.477427673E0,3.903732147E0,1.194081894E1,1.264931121E1
6.515529833E0,1.567839661E0,3.892954559E0,1.186447769E1,1.258487375E1
6.525488833E0,1.655108185E0,3.839216309E0,1.167018173E1,1.239645541E1
6.535446833E0,1.423689423E0,3.712130585E0,1.153905441E1,1.220477701E1
6.545404833E0,7.664062500E-1,3.564387817E0,1.162437698E1,1.218270821E1
6.555363833E0,-6.900650024E-2,3.663032684E0,1.187899750E1,1.243113639E1
6.565321833E0,-6.249504089E-1,3.883673859E0,1.215607132E1,1.277668015E1
6.575280833E0,-7.315287781E-1,4.040847015E0,1.233614685E1,1.300169597E1
6.585238833E0,-3.549119568E-1,3.990701294E0,1.236009705E1,1.299321586E1
6.595197833E0,1.116677856E-1,3.545077972E0,1.212613358E1,1.263420607E1
6.605155833E0,4.279600525E-1,2.912493439E0,1.190070236E1,1.225938353E1
6.615114833E0,5.486091614E-1,2.180365906E0,1.196581696E1,1.217521018E1
6.625072833E0,5.219645691E-1,1.485660553E0,1.250783981E1,1.260657333E1
6.635031833E0,4.971162415E-1,1.045276337E0,1.354278763E1,1.359216038E1
6.644989833E0,5.089416504E-1,8.003855896E-1,1.408002045E1,1.411193164E1
6.654948833E0,4.334985352E-1,5.761518860E-1,1.369367386E1,1.371264292E1
6.664906833E0,1.676513672E-1,4.855902100E-1,1.274255173E1,1.275290278E1
6.674864833E0,-3.854484558E-1,7.306306458E-1,1.182600769E1,1.185482389E1
6.684823833E0,-7.996371460E-1,1.150956573E0,1.107995911E1,1.116824133E1
6.694781833E0,-8.541238403E-1,1.429676971E0,1.052820648E1,1.065911045E1
6.704740833E0,-2.134561157E-1,1.642833710E0,1.038076309E1,1.051212198E1
6.714698833E0,6.057902527E-1,1.774559784E0,1.049632278E1,1.066249672E1
6.724657833E0,8.806187439E-1,1.918710022E0,1.045815216E1,1.066910887E1
6.734615833E0,7.117698669E-1,2.073787537E0,1.025502457E1,1.048678883E1
6.744574833E0,2.321672058E-1,2.283651123E0,1.012823822E1,1.038509381E1
6.754532833E0,-2.305206299E-1,2.526895294E0,9.959239655E0,1.027739238E1
6.764491833E0,-3.113525391E-1,2.665507050E0,9.896669769E0,1.025406947E1
6.774449833E0,-8.053253174E-2,2.700384521E0,1.000160156E1,1.036004806E1
6.784408833E0,4.171824646E-1,2.775827637E0,1.033570679E1,1.071009314E1
6.794366833E0,8.063731384E-1,2.871179352E0,1.088790848E1,1.128895299E1
6.804324833E0,9.327104187E-1,3.052452393E0,1.139116196E1,1.182987680E1
6.814283833E0,8.467890930E-1,3.150797882E0,1.158710449E1,1.203767293E1
6.824241833E0,4.505630493E-1,3.152294769E0,1.119596786E1,1.164000283E1
6.834200833E0,-1.356179810E-1,3.141816559E0,1.026235931E1,1.073337888E1
6.844158833E0,-5.566923523E-1,3.089425507E0,9.267827454E0,9.785043794E0
6.854117833E0,-6.282435608E-1,3.057691498E0,8.589737549E0,9.139352188E0
6.864075833E0,1.203497314E-1,2.983595581E0,8.584947510E0,9.089425196E0
6.874034833E0,1.107397156E0,3.176993408E0,9.531279602E0,1.010766573E1
6.883992833E0,1.788031769E0,3.456162872E0,1.099733093E1,1.166547929E1
6.893951833E0,2.203867035E0,3.521876221E0,1.214753906E1,1.283835454E1
6.903909833E0,2.451302490E0,3.303630066E0,1.266621048E1,1.331749764E1
6.913868833E0,2.197430420E0,2.786605225E0,1.250155289E1,1.299548744E1
6.923827583E0,1.349294128E0,2.180665283E0,1.164458496E1,1.192360074E1
6.933785583E0,3.270698547E-1,1.782792664E0,1.040935364E1,1.056598162E1
6.943744583E0,-4.358935547E-1,1.833088074E0,9.181756439E0,9.373092680E0
6.953702583E0,-5.119354248E-1,2.046244812E0,8.378975830E0,8.640395342E0
6.963661583E0,5.842350769E-1,2.328408051E0,8.584049377E0,8.913401056E0
6.973619583E0,2.095941467E0,2.802322540E0,9.813891907E0,1.041913896E1
6.983578583E0,3.230731659E0,2.913840637E0,1.110810059E1,1.192971051E1
6.993536583E0,3.957470398E0,2.671644287E0,1.180370407E1,1.273289774E1
7.003495583E0,3.870950317E0,2.573598175E0,1.213227081E1,1.299229229E1
7.013453583E0,3.151246948E0,2.541415100E0,1.206341400E1,1.272458665E1
7.023412583E0,2.085163879E0,2.404300232E0,1.150492538E1,1.193699611E1
7.033370583E0,1.135089569E0,2.084116058E0,1.055949142E1,1.082288442E1
7.043329583E0,8.168513489E-1,1.868713989E0,9.742340698E0,9.953518995E0
7.053287583E0,1.353784790E0,1.832339630E0,9.594597931E0,9.861364573E0
7.063245583E0,2.459385681E0,2.083517303E0,1.029259644E1,1.078550711E1
7.073204583E0,3.588188324E0,2.268831940E0,1.101813766E1,1.180771152E1
7.083162583E0,4.449796600E0,2.033371582E0,1.138053406E1,1.238756817E1
7.093121583E0,4.643344116E0,1.711241455E0,1.152198990E1,1.253974653E1
7.103079583E0,4.057911530E0,1.496438141E0,1.157617722E1,1.235774462E1
7.113038583E0,3.108735352E0,1.317709808E0,1.150013535E1,1.198556246E1
7.122996583E0,2.471809845E0,1.069974976E0,1.102532272E1,1.134955645E1
7.132955583E0,2.743045807E0,8.277786255E-1,1.039932449E1,1.078681916E1
7.142913583E0,3.721710663E0,1.008452911E0,1.032462982E1,1.102116548E1
7.152872583E0,4.191733246E0,1.312770081E0,1.092024124E1,1.177054211E1
7.162830583E0,4.437372437E0,1.300495605E0,1.146795227E1,1.236509168E1
7.172788583E0,4.275109863E0,1.079704742E0,1.196985855E1,1.275616872E1
7.182747583E0,3.594624939E0,1.046473846E0,1.239781860E1,1.295076608E1
7.192705583E0,2.793939972E0,1.081800385E0,1.254316635E1,1.289602321E1
7.202664583E0,2.238594818E0,9.577084351E-1,1.232252518E1,1.256077780E1
7.212622583E0,2.097588043E0,7.473957825E-1,1.185355042E1,1.206089273E1
7.222581583E0,2.442470856E0,5.191204834E-1,1.136107452E1,1.163224674E1
7.232539583E0,3.139421539E0,4.095483398E-1,1.116543137E1,1.160562601E1
7.242498583E0,4.066294098E0,4.743635559E-1,1.149669250E1,1.220383985E1
7.252456583E0,4.553530884E0,7.143145752E-1,1.209933929E1,1.294754418E1
7.262415583E0,4.522994385E0,6.170169067E-1,1.241368561E1,1.322640459E1
7.272373583E0,4.192032623E0,2.881507874E-1,1.238674164E1,1.308004346E1
7.282332583E0,3.764371948E0,2.829116821E-2,1.212553482E1,1.269645192E1
7.292290583E0,3.236120453E0,-1.866618347E-1,1.165536255E1,1.209771856E1
7.302248583E0,2.690205688E0,-3.221301270E-1,1.120180573E1,1.152481783E1
7.312207583E0,2.304308167E0,-4.571493530E-1,1.083132614E1,1.108316054E1
7.322165583E0,2.112407227E0,-7.568261719E-1,1.052221893E1,1.075881692E1
7.332124583E0,2.194286957E0,-1.012793884E0,1.017883301E1,1.046180138E1
7.342082583E0,2.317331085E0,-1.050665131E0,9.760752411E0,1.008693255E1
7.352041583E0,2.342179413E0,-8.566685486E-1,9.365873566E0,9.692227456E0
7.361999583E0,2.221530304E0,-6.794371033E-1,9.043743439E0,9.337351180E0
7.371958583E0,1.914668427E0,-4.890330505E-1,8.874146118E0,9.091511306E0
7.381916583E0,1.718276825E0,-4.689747620E-1,8.828640747E0,9.006514865E0
7.391875583E0,1.645079041E0,-5.959107971E-1,8.823251953E0,8.995063633E0
7.401833583E0,1.654060364E0,-7.688012695E-1,8.704997864E0,8.894040639E0
7.411792583E0,1.696422272E0,-7.791297913E-1,8.630153503E0,8.829747519E0
7.421750583E0,1.663191376E0,-6.807843018E-1,8.619375916E0,8.804732477E0
7.431708583E0,1.536405029E0,-6.354286194E-1,8.704698486E0,8.862058772E0
7.441667583E0,1.285526733E0,-6.584806824E-1,8.729546814E0,8.848229392E0
7.451625583E0,1.103804626E0,-7.226971436E-1,8.629105682E0,8.729383752E0
7.461584583E0,1.073866882E0,-7.750881958E-1,8.424930267E0,8.528387995E0
7.471542583E0,1.035845947E0,-7.926017761E-1,8.234077148E0,8.336739224E0
7.481501583E0,9.598040771E-1,-8.839118958E-1,8.088729401E0,8.193294052E0
7.491459583E0,8.434959412E-1,-9.910890198E-1,8.033643951E0,8.138376864E0
7.501418583E0,7.256909180E-1,-1.005159760E0,8.012388153E0,8.107733183E0
7.511376583E0,4.697232056E-1,-8.427474976E-1,8.145611115E0,8.202551046E0
7.521335583E0,3.791615295E-1,-4.848417664E-1,8.381819916E0,8.404388146E0
7.531293583E0,2.760260010E-1,-2.399510193E-1,8.638386383E0,8.646125499E0
7.541252583E0,9.280700684E-2,-3.315605164E-1,8.632099457E0,8.638963280E0
7.551210583E0,-3.547622681E-2,-6.436614990E-1,8.408314819E0,8.432989789E0
7.561168583E0,-1.564247131E-1,-9.151968384E-1,8.191864929E0,8.244313492E0
7.571127583E0,-3.097059631E-1,-8.873547363E-1,8.083190918E0,8.137646566E0
7.581085583E0,-3.959266663E-1,-4.447251892E-1,8.273894348E0,8.295291803E0
7.591044583E0,-3.748205566E-1,1.814227295E-1,8.446036377E0,8.456295592E0
7.601002583E0,-1.167572021E-1,5.771997070E-1,8.423134003E0,8.443694581E0
7.610961583E0,3.159928894E-1,6.973997498E-1,8.430019684E0,8.464717939E0
7.620919583E0,5.017565918E-1,5.812413025E-1,8.656947784E0,8.690934706E0
7.630878583E0,1.540296936E-1,4.251159668E-1,9.101672974E0,9.112897434E0
7.640836583E0,-5.300477600E-1,5.248086548E-1,9.257049866E0,9.287052652E0
7.650795583E0,-1.065933380E0,5.788462830E-1,8.982820129E0,9.064344128E0
7.660753583E0,-1.417103119E0,4.397854614E-1,8.482111359E0,8.610912008E0
7.670711583E0,-1.633253632E0,5.363346863E-1,8.119864655E0,8.299841826E0
7.680670583E0,-1.696571960E0,6.764433289E-1,8.249944153E0,8.449704759E0
7.690628583E0,-1.484762421E0,7.524851990E-1,8.960366821E0,9.113667044E0
7.700587583E0,-1.161434784E0,9.053173828E-1,9.700128479E0,9.811270195E0
7.710545583E0,-8.292755127E-1,1.100661163E0,1.012494507E1,1.021830052E1
7.720504583E0,-9.235794067E-1,1.216220856E0,1.017494110E1,1.028890755E1
7.730462583E0,-1.380579071E0,1.262624359E0,1.000938538E1,1.018273119E1
7.740421583E0,-1.997595978E0,1.370400238E0,9.776170349E0,1.007183663E1
7.750379583E0,-2.593656464E0,1.518891449E0,9.534872131E0,9.997393243E0
7.760338583E0,-2.993624725E0,1.630559235E0,9.479487305E0,1.007378737E1
7.770296583E0,-3.005899200E0,1.600920868E0,9.393116913E0,9.991447491E0
7.780255583E0,-2.599045258E0,1.501377869E0,9.120683441E0,9.601876806E0
7.790213583E0,-2.012564850E0,1.619182892E0,8.916058960E0,9.282686997E0
7.800171583E0,-1.743723907E0,1.945803680E0,9.075926514E0,9.444531069E0
7.810130583E0,-1.897903290E0,2.354004822E0,9.452693024E0,9.924554448E0
7.820088583E0,-2.225871277E0,2.539169769E0,9.710157623E0,1.028051784E1
7.830047583E0,-2.657872925E0,2.466720428E0,9.742640076E0,1.039557761E1
7.840005583E0,-2.951711884E0,2.328707428E0,9.896669769E0,1.058676314E1
7.849964583E0,-3.062930603E0,2.364483032E0,1.019514908E1,1.090474157E1
7.859922583E0,-2.825673981E0,2.451152802E0,1.058344162E1,1.122505323E1
7.869881583E0,-2.150128784E0,2.453248444E0,1.085063599E1,1.133039201E1
7.879839583E0,-1.604214020E0,2.433040466E0,1.090871521E1,1.129129116E1
7.889798583E0,-1.505868530E0,2.470762024E0,1.078207855E1,1.116358020E1
7.899756583E0,-1.667382660E0,2.554737396E0,1.046399002E1,1.089963005E1
7.909715583E0,-1.916614380E0,2.650388489E0,1.000085312E1,1.052212112E1
7.919673625E0,-2.093995514E0,2.672243042E0,9.359436951E0,9.956141829E0
7.929631625E0,-2.225571899E0,2.609373779E0,8.621621246E0,9.278704366E0
7.939590625E0,-2.327958984E0,2.625240784E0,8.145162048E0,8.868762428E0
7.949548625E0,-2.418071594E0,2.784210205E0,8.236771545E0,9.024594295E0
7.959507625E0,-2.453098755E0,2.966231689E0,9.049132233E0,9.833769272E0
7.969465625E0,-2.211501160E0,2.809058533E0,1.036040543E1,1.095990638E1
7.979424625E0,-1.493594055E0,2.193837891E0,1.161689255E1,1.191620495E1
7.989382625E0,-8.608598328E-1,1.571581879E0,1.233435059E1,1.246383383E1
7.999341625E0,-7.491920471E-1,1.088087311E0,1.247281265E1,1.254257861E1
8.009299625E0,-1.050814819E0,9.584568787E-1,1.224169327E1,1.232403771E1
8.019258625E0,-1.493743744E0,1.132395172E0,1.207000031E1,1.221468365E1
8.029216625E0,-1.905238037E0,1.223555603E0,1.196282318E1,1.217522726E1
8.039174625E0,-2.013612671E0,1.052162018E0,1.158201508E1,1.180274350E1
8.049133625E0,-1.825603638E0,7.518864441E-1,1.110810059E1,1.128220105E1
8.059091625E0,-1.504521332E0,5.266049194E-1,1.080677719E1,1.092370498E1
8.069050625E0,-1.225052490E0,3.773652649E-1,1.064720901E1,1.072409520E1
8.079008625E0,-1.302890625E0,2.908451843E-1,1.057311310E1,1.065705567E1
8.088967625E0,-1.405277710E0,9.026229858E-2,1.032043854E1,1.041606472E1
8.098925625E0,-1.417252808E0,2.844085693E-3,1.001926483E1,1.011900595E1
8.108884625E0,-1.514251099E0,9.400451660E-2,1.006551865E1,1.017921701E1
8.118842625E0,-1.303040314E0,1.992356873E-1,1.072429871E1,1.080500771E1
8.128801625E0,-9.931846619E-1,3.026705933E-1,1.146316223E1,1.151008747E1
8.138759625E0,-7.936495972E-1,2.516267395E-1,1.171568710E1,1.174523393E1
8.148718625E0,-6.204597473E-1,1.507365417E-1,1.139280853E1,1.141068701E1
8.158676625E0,-5.947132874E-1,2.854563904E-1,1.073387878E1,1.075413051E1
8.168634625E0,-9.087602234E-1,7.695497131E-1,1.040336609E1,1.047129781E1
8.178593625E0,-1.190324707E0,1.290616150E0,1.040426422E1,1.055136375E1
8.188551625E0,-1.206491089E0,1.395697632E0,1.030217651E1,1.046606103E1
8.198510625E0,-8.294252014E-1,1.428778839E0,1.014874557E1,1.028233397E1
8.208468625E0,-2.095642090E-1,1.569037170E0,1.007015900E1,1.019381661E1
8.218427625E0,3.929328918E-1,1.984722748E0,1.040650955E1,1.060136603E1
8.228385625E0,6.490502930E-1,2.564167786E0,1.126871658E1,1.157498148E1
8.238344625E0,6.839277649E-1,2.924618225E0,1.207104813E1,1.243910575E1
8.248302625E0,9.610015869E-1,2.913541260E0,1.239826767E1,1.277220764E1
8.258261625E0,1.429078217E0,2.641556854E0,1.240200989E1,1.276048339E1
8.268219625E0,1.828447723E0,2.503992920E0,1.216071167E1,1.254974541E1
8.278178625E0,2.112407227E0,2.527494049E0,1.181044006E1,1.226119835E1
8.288136625E0,2.301164703E0,2.545456696E0,1.137095398E1,1.187742831E1
8.298094625E0,2.238445129E0,2.644251251E0,1.091964249E1,1.145605924E1
8.308053625E0,1.868564301E0,2.703977051E0,1.042312500E1,1.092906946E1
8.318011625E0,1.339714050E0,2.691702576E0,1.004725662E1,1.048749075E1
8.327970625E0,8.650511169E-1,2.934497681E0,1.001642075E1,1.047321701E1
8.337928625E0,8.837622070E-1,3.206781464E0,1.019574783E1,1.072463318E1
8.347887625E0,1.256337433E0,3.161126404E0,1.051787796E1,1.105426889E1
8.357845625E0,1.670077057E0,3.026556244E0,1.072609497E1,1.126935284E1
8.367804625E0,2.002835083E0,2.760110321E0,1.077683945E1,1.130353156E1
8.377762625E0,2.152523804E0,2.527793427E0,1.085961731E1,1.135580849E1
8.387721625E0,2.012864227E0,2.427202606E0,1.109373047E1,1.153316048E1
8.397679625E0,1.542841644E0,2.457140350E0,1.144909149E1,1.181099467E1
8.407638625E0,1.002016296E0,2.543660431E0,1.187480621E1,1.218545312E1
8.417596625E0,5.584886169E-1,2.581232300E0,1.223929825E1,1.252098604E1
8.427554625E0,4.352947998E-1,2.600093079E0,1.230561035E1,1.258483261E1
8.437513625E0,6.638694763E-1,2.521207123E0,1.185669388E1,1.213995048E1
8.447471625E0,9.671388245E-1,2.408641205E0,1.122141495E1,1.151768481E1
8.457430625E0,1.206940155E0,2.485132141E0,1.073492661E1,1.108472984E1
8.467388625E0,1.215322723E0,2.674488373E0,1.070483917E1,1.110060715E1
8.477347625E0,9.380992126E-1,2.589016113E0,1.100421661E1,1.134353639E1
8.487305625E0,5.520520020E-1,2.286944275E0,1.132470016E1,1.156649080E1
8.497264625E0,1.462458801E-1,1.968406677E0,1.147663422E1,1.164513399E1
8.507222625E0,-4.345463562E-1,1.768422546E0,1.151196075E1,1.165510143E1
8.517181625E0,-8.373587036E-1,1.855242004E0,1.154758667E1,1.172560661E1
8.527139625E0,-1.005459137E0,1.926493835E0,1.161374908E1,1.181530763E1
8.537097625E0,-8.583151245E-1,1.831740875E0,1.180011154E1,1.197224339E1
8.547056625E0,-4.173321533E-1,1.532213745E0,1.184801193E1,1.195396302E1
8.557014625E0,2.276765442E-1,1.311572571E0,1.189681046E1,1.197105502E1
8.566973625E0,7.729925537E-1,1.417252808E0,1.199874847E1,1.210686119E1
8.576931625E0,1.049617310E0,1.762434998E0,1.203721848E1,1.221075355E1
8.586890625E0,1.318907318E0,2.266885986E0,1.192046127E1,1.220555962E1
8.596848625E0,1.703607330E0,2.628084869E0,1.176283905E1,1.217265339E1
8.606807625E0,1.966760101E0,2.711910553E0,1.157183624E1,1.204699125E1
8.616765625E0,1.896406403E0,2.573149109E0,1.125554398E1,1.170062920E1
8.626724625E0,1.415306854E0,2.415676575E0,1.101514389E1,1.136538524E1
8.636682625E0,8.446934509E-1,2.394420776E0,1.090751770E1,1.119913837E1
8.646641625E0,6.246510315E-1,2.500101013E0,1.096140564E1,1.126024456E1
8.656599625E0,8.351133728E-1,2.592458954E0,1.121662491E1,1.154257043E1
8.666557625E0,1.387913818E0,2.678829346E0,1.162856827E1,1.201357696E1
8.676516625E0,1.817071381E0,2.696342926E0,1.206745560E1,1.249781974E1
8.686474625E0,2.008074188E0,2.662812653E0,1.220846237E1,1.265580842E1
8.696433625E0,2.101929016E0,2.661615143E0,1.194186676E1,1.241412431E1
8.706391625E0,2.075134735E0,2.775528259E0,1.142169846E1,1.193586766E1
8.716350625E0,1.948647766E0,2.859803009E0,1.080842377E1,1.134890857E1
8.726308625E0,2.269580383E0,2.974015503E0,1.027972321E1,1.093930859E1
8.736267625E0,2.970572662E0,3.349584503E0,1.028720764E1,1.121920939E1
8.746225625E0,3.520978088E0,3.699706421E0,1.064586182E1,1.180760298E1
8.756184625E0,3.987857208E0,3.664529572E0,1.080662750E1,1.208780295E1
8.766142625E0,4.079167328E0,3.441792755E0,1.073507629E1,1.198863656E1
8.776101625E0,3.638783112E0,3.215912476E0,1.058164536E1,1.164276831E1
8.786059625E0,2.893183594E0,3.007845154E0,1.039648041E1,1.120287680E1
8.796017625E0,2.184856567E0,2.782264252E0,1.023137375E1,1.082569173E1
8.805976625E0,1.774110718E0,2.670446777E0,1.029529083E1,1.078293875E1
8.815934625E0,2.006427612E0,2.720442810E0,1.052536240E1,1.105485479E1
8.825893625E0,2.572250977E0,2.945125580E0,1.086126389E1,1.154371227E1
8.835851625E0,3.028801575E0,3.171454926E0,1.112995514E1,1.196276167E1
8.845810625E0,3.431913300E0,3.209475861E0,1.124626328E1,1.218840440E1
8.855768625E0,3.626358948E0,3.192111969E0,1.127560226E1,1.226699900E1
8.865727625E0,3.652704163E0,3.052153015E0,1.126018433E1,1.222495958E1
8.875685625E0,3.673810272E0,2.757565613E0,1.115839600E1,1.206693214E1
8.885644625E0,4.012106781E0,2.471061401E0,1.114866623E1,1.210354923E1
8.895602625E0,4.629872131E0,2.371817780E0,1.126572281E1,1.240877697E1
8.905560625E0,5.217699738E0,2.218985596E0,1.149609375E1,1.281828612E1
8.915519625E0,5.634882202E0,1.941911774E0,1.156285492E1,1.300855613E1
8.925477708E0,5.844745789E0,1.699715424E0,1.136526581E1,1.289260845E1
8.935436708E0,5.805078278E0,1.690734100E0,1.089449478E1,1.245983676E1
8.945394708E0,5.576952667E0,1.810185699E0,1.035187317E1,1.189707743E1
8.955353708E0,5.199437714E0,1.941313019E0,9.900861053E0,1.135032591E1
8.965311708E0,4.913532257E0,1.908231812E0,9.470955048E0,1.083896385E1
8.975270708E0,4.747078400E0,1.637893982E0,9.165290680E0,1.045083744E1
8.985228708E0,4.756658478E0,1.389111328E0,9.221573639E0,1.046866040E1
8.995187708E0,4.889881439E0,1.202150116E0,9.470955048E0,1.072637380E1
9.005145708E0,5.089117126E0,1.043330383E0,9.847721558E0,1.113396925E1
9.015103708E0,5.215604095E0,8.110134888E-1,1.021086639E1,1.149443611E1
9.025062708E0,5.106031952E0,4.159849548E-1,1.033810181E1,1.153780546E1
9.035020708E0,4.818030853E0,-3.442840576E-3,1.032343231E1,1.139239605E1
9.044979708E0,4.445605316E0,-3.350033569E-1,1.026759842E1,1.119371302E1
9.054937708E0,3.955823822E0,-5.980064392E-1,1.012674133E1,1.088839032E1
9.064896708E0,3.530707855E0,-7.102729797E-1,9.974657593E0,1.060491300E1
9.074854708E0,3.220702515E0,-6.617738342E-1,9.884544983E0,1.041705807E1
9.084813708E0,2.867137756E0,-5.608836365E-1,9.802515564E0,1.022860600E1
9.094771708E0,2.631976776E0,-4.297563171E-1,9.742490387E0,1.010089655E1
9.104730708E0,2.383792877E0,-2.644999695E-1,9.794881439E0,1.008425164E1
9.114688708E0,2.100132751E0,-9.011260986E-2,9.912985840E0,1.013340842E1
9.124647708E0,2.098486176E0,3.622467041E-2,1.003333557E1,1.025050141E1
9.134605708E0,2.418820038E0,6.721023560E-2,1.003498215E1,1.032260017E1
9.144563708E0,2.902314606E0,6.481521606E-2,9.741741943E0,1.016509553E1
9.154522708E0,3.460803223E0,2.306703186E-1,9.212592316E0,9.843892773E0
9.164480708E0,3.816313934E0,5.724096680E-1,8.686137085E0,9.504782077E0
9.174439708E0,3.837120667E0,9.624984741E-1,8.231382751E0,9.132664470E0
9.184397708E0,3.670966187E0,1.185534668E0,7.834408264E0,8.732665002E0
9.194356708E0,3.344495087E0,1.267264709E0,7.459138641E0,8.272264291E0
9.204314708E0,3.015928345E0,1.304537201E0,7.245383148E0,7.955703492E0
9.214273708E0,2.747237091E0,1.368005219E0,7.223827972E0,7.848722220E0
9.224231708E0,2.552791443E0,1.425335999E0,7.415728912E0,7.971283596E0
9.234190708E0,2.632425842E0,1.366957397E0,7.664960632E0,8.218872175E0
9.244148708E0,2.877166901E0,1.197360077E0,7.843389587E0,8.439817578E0
9.254106708E0,3.103346558E0,1.144969025E0,7.758665771E0,8.434370663E0
9.264065708E0,3.058589630E0,1.264570312E0,7.632777557E0,8.319459228E0
9.274023708E0,2.763253784E0,1.463057556E0,7.602241058E0,8.220108150E0
9.283982708E0,2.512525177E0,1.489103394E0,7.699089661E0,8.234451608E0
9.293940708E0,2.427951050E0,1.313368835E0,7.895331573E0,8.363978996E0
9.303899708E0,2.435435486E0,1.072519684E0,8.197253723E0,8.618388079E0
9.313857708E0,2.362387390E0,9.663903809E-1,8.667425995E0,9.035433466E0
9.323816708E0,2.112556915E0,9.710307312E-1,9.122030640E0,9.413673055E0
9.333774708E0,1.841770020E0,9.505233765E-1,9.301507416E0,9.529619704E0
9.343733708E0,1.694476318E0,7.138655090E-1,9.073232117E0,9.257666823E0
9.353691708E0,1.660347290E0,4.776567078E-1,8.681496735E0,8.851739637E0
9.363650708E0,1.554068298E0,1.947450256E-1,8.466843109E0,8.610486986E0
9.373608708E0,1.168619843E0,-1.149609375E-1,8.680149536E0,8.759217107E0
9.383566708E0,6.352789307E-1,-2.686912537E-1,9.338031464E0,9.363471895E0
9.393525708E0,1.733395386E-1,-2.243833923E-1,1.006117767E1,1.006517216E1
9.403483708E0,-3.023712158E-2,-1.981878662E-1,1.043989014E1,1.044181492E1
9.413442708E0,-4.236190796E-2,-1.121168518E-1,1.035636383E1,1.035705733E1
9.423400708E0,-1.481918335E-1,2.409988403E-1,9.898765411E0,9.902807578E0
9.433359708E0,-4.671784973E-1,6.899153137E-1,9.139693909E0,9.177594654E0
9.443317708E0,-9.973759460E-1,8.801696777E-1,8.258476410E0,8.364920206E0
9.453276708E0,-1.598675537E0,1.011147308E0,7.654781799E0,7.885040694E0
9.463234708E0,-2.107617188E0,1.000369720E0,7.280559998E0,7.645217045E0
9.473193708E0,-2.362686768E0,8.589138794E-1,7.354506226E0,7.772308771E0
9.483151708E0,-2.473157043E0,8.029302979E-1,7.971523132E0,8.384890212E0
9.493110708E0,-2.527494049E0,9.514215088E-1,8.932075653E0,9.331420285E0
9.503068708E0,-2.492766266E0,1.337169342E0,1.009725266E1,1.048601052E1
9.513026708E0,-2.320624237E0,1.704355774E0,1.102861588E1,1.139826713E1
9.522985708E0,-2.014361115E0,1.837728424E0,1.138547379E1,1.170742968E1
9.532943708E0,-1.881138153E0,1.602567444E0,1.095736404E1,1.123257450E1
9.542902708E0,-2.162403259E0,1.147513733E0,1.006581802E1,1.035922140E1
9.552860708E0,-2.759361877E0,1.008003845E0,9.542805634E0,9.984752830E0
9.562819708E0,-3.614832916E0,1.102906494E0,9.605674896E0,1.032242268E1
9.572777708E0,-4.300706635E0,1.258433075E0,9.886490936E0,1.085460429E1
9.582736708E0,-4.611011353E0,1.434167633E0,1.018497025E1,1.127172930E1
9.592694708E0,-4.474046173E0,1.474134521E0,1.028660889E1,1.131390667E1
9.602653708E0,-3.835474091E0,1.444645844E0,1.027223877E1,1.105969043E1
9.612611708E0,-2.897674255E0,1.516945496E0,1.039483383E1,1.089725700E1
9.622570708E0,-2.071093140E0,1.801204376E0,1.076606186E1,1.111043887E1
9.632528708E0,-1.536704407E0,2.146536255E0,1.126063339E1,1.156593890E1
9.642486708E0,-1.250200195E0,1.718426514E0,1.181373322E1,1.200334465E1
9.652445708E0,-1.262474670E0,1.711690521E0,1.216475327E1,1.234928940E1
9.662403708E0,-2.042652283E0,1.988764343E0,1.162198196E1,1.196653988E1
9.672362708E0,-2.830913086E0,1.896107025E0,1.038181091E1,1.092663208E1
9.682320708E0,-3.475921783E0,1.656605072E0,9.282197571E0,1.004915740E1
9.692279708E0,-3.793561249E0,1.641785889E0,8.780141602E0,9.704506912E0
9.702237708E0,-3.320095825E0,2.108964386E0,8.811276855E0,9.649319504E0
9.712196708E0,-2.124681702E0,2.915337524E0,9.171427917E0,9.855382045E0
9.722154708E0,-7.964936829E-1,3.720662842E0,9.740095367E0,1.045692077E1
9.732113708E0,4.034111023E-1,4.498295746E0,1.048554520E1,1.141683245E1
9.742071708E0,1.105002136E0,4.960235138E0,1.117680771E1,1.227786598E1
9.752030708E0,1.125808868E0,5.132526855E0,1.169832321E1,1.282423657E1
9.761988708E0,5.189707947E-1,5.138364716E0,1.188633224E1,1.295982318E1
9.771947708E0,-5.318440247E-1,5.095254364E0,1.188244034E1,1.293973970E1
9.781905708E0,-1.770368500E0,5.050946503E0,1.198527649E1,1.312604730E1
9.791863708E0,-2.610720978E0,5.043761444E0,1.228151047E1,1.353110834E1
9.801822708E0,-2.801574097E0,5.004992065E0,1.252789810E1,1.377849752E1
9.811780708E0,-2.540966034E0,4.834197235E0,1.267354523E1,1.380017101E1
9.821739708E0,-1.770518188E0,4.875511322E0,1.261022690E1,1.363536460E1
9.831697708E0,-1.487007751E0,5.053191833E0,1.204455322E1,1.314599567E1
9.841656708E0,-2.138902130E0,5.248236237E0,1.144220581E1,1.276882766E1
9.851614708E0,-3.040327606E0,5.488336945E0,1.096499817E1,1.263315555E1
9.861573708E0,-3.725003815E0,5.877228241E0,1.065499283E1,1.272581382E1
9.871531708E0,-3.596870270E0,6.161487122E0,1.037058426E1,1.258770897E1
9.881490708E0,-2.526296539E0,6.301745453E0,1.030996033E1,1.234461226E1
9.891448708E0,-1.207688599E0,6.247558136E0,1.039932449E1,1.219165470E1
9.901407708E0,-5.149291992E-1,6.195466461E0,1.067924240E1,1.235698891E1
9.911365708E0,-1.875599670E-1,6.115532684E0,1.113190109E1,1.270252497E1
9.921324000E0,-1.296304321E-1,5.990392914E0,1.144849274E1,1.292167161E1
9.931282000E0,-2.585124207E-1,5.765111389E0,1.155117920E1,1.291251637E1
9.941240000E0,-3.641926575E-1,5.525759125E0,1.186821991E1,1.309661384E1
9.951199000E0,-1.932481384E-1,5.343737640E0,1.225127335E1,1.336736980E1
9.961157000E0,2.073188782E-1,5.145849152E0,1.255963211E1,1.357450196E1
9.971116000E0,9.345066833E-1,5.063370667E0,1.279284714E1,1.379014007E1
9.981074000E0,1.798959045E0,5.062023468E0,1.300465668E1,1.407058743E1
9.991033000E0,2.787802734E0,5.076543274E0,1.290885590E1,1.414855810E1
1.000099100E1,3.733236694E0,5.021308136E0,1.242326569E1,1.391000079E1
1.001095000E1,4.276007996E0,4.805007935E0,1.153905441E1,1.321068213E1
1.002090800E1,4.229903870E0,4.492308197E0,1.044512924E1,1.213151452E1
1.003086700E1,3.738176422E0,4.170926514E0,9.575886841E0,1.109361076E1
1.004082500E1,3.100652161E0,3.898193665E0,9.088949432E0,1.036431182E1
1.005078400E1,2.679577789E0,3.770359497E0,9.103169861E0,1.021094753E1
1.006074200E1,2.846929779E0,3.831282806E0,9.387728119E0,1.053153248E1
1.007070100E1,3.542233887E0,3.956272888E0,9.575437775E0,1.094936184E1
1.008065900E1,4.478087769E0,4.134402466E0,9.585167542E0,1.135878473E1
1.009061800E1,5.033732300E0,4.268373871E0,9.435628510E0,1.151471067E1
1.010057600E1,5.073549500E0,4.170327759E0,9.086255035E0,1.121126972E1
1.011053400E1,4.615801392E0,3.905079346E0,8.580756226E0,1.049688738E1
1.012049300E1,3.828588409E0,3.694317627E0,8.180937653E0,9.758781318E0
1.013045100E1,3.027604065E0,3.482208710E0,7.962990875E0,9.203335675E0
1.014041000E1,2.411784668E0,3.338208160E0,7.843539276E0,8.858975527E0
1.015036800E1,2.051783295E0,3.301085358E0,7.765850830E0,8.684205107E0
1.016032700E1,2.061513062E0,3.374283142E0,7.815397797E0,8.758770778E0
1.017028500E1,2.439477081E0,3.483256531E0,7.984546051E0,9.046386026E0
1.018024400E1,3.005150757E0,3.629203033E0,8.196804657E0,9.454610109E0
1.019020200E1,3.569028168E0,3.924089813E0,8.335715790E0,9.880313793E0
1.020016100E1,4.016447754E0,4.165388031E0,8.430019684E0,1.022484924E1
1.021011900E1,4.366719360E0,4.330345001E0,8.566086731E0,1.054504470E1
1.022007800E1,8.906778259E0,4.245321808E0,1.077489349E1,1.460998925E1
1.023003600E1,4.833448792E0,5.149142303E0,8.601712646E0,1.112948131E1
1.023999500E1,1.032702484E0,4.917274475E0,7.412735138E0,8.955149631E0
1.024995300E1,2.499202881E0,3.784579926E0,7.630382538E0,8.876474409E0
1.025991200E1,1.980980530E0,3.262166290E0,7.175029449E0,8.126934254E0
1.026987000E1,2.358495483E0,3.043022003E0,7.523055725E0,8.450967477E0
1.027982800E1,2.744093628E0,3.094664612E0,7.579039307E0,8.634166764E0
1.028978700E1,2.853965149E0,3.345692596E0,7.533683624E0,8.723254265E0
1.029974500E1,2.985990601E0,3.685336304E0,7.550299072E0,8.916549760E0
1.030970400E1,3.115621033E0,3.979324951E0,7.599247284E0,9.126372816E0
1.031966200E1,3.208577728E0,4.044439545E0,7.722141724E0,9.288914634E0
1.032962100E1,3.152893524E0,3.868106232E0,8.060737610E0,9.480425845E0
1.033957900E1,2.970422974E0,3.826792145E0,8.517138519E0,9.798438616E0
1.034953800E1,2.808459778E0,4.019740906E0,8.231831818E0,9.581691831E0
1.035949600E1,3.050506439E0,4.157304840E0,8.007598114E0,9.524200787E0
1.036945500E1,3.389102325E0,4.333039398E0,8.100105743E0,9.791473743E0
1.037941300E1,3.772155762E0,4.581073608E0,7.800428925E0,9.801126767E0
1.038937200E1,4.010609894E0,4.859494629E0,7.328909454E0,9.665019067E0
1.039933000E1,3.961511993E0,5.122797089E0,7.190297699E0,9.676621739E0
1.040928900E1,3.930376740E0,5.482648773E0,7.225324860E0,9.884969308E0
1.041924700E1,4.054768066E0,5.778583374E0,7.191345520E0,1.007713353E1
1.042920500E1,4.148622894E0,5.916296997E0,7.241640930E0,1.023010290E1
1.043916400E1,3.900438995E0,5.960006104E0,7.416627045E0,1.028306636E1
1.044912200E1,3.618126068E0,5.946085052E0,7.215894470E0,1.002576165E1
1.045908100E1,3.535348206E0,5.948480072E0,7.000941467E0,9.843590988E0
1.046903900E1,3.438798981E0,5.951324158E0,6.994055786E0,9.806141647E0
1.047899800E1,3.199596405E0,5.855223999E0,7.022945709E0,9.687250986E0
1.048895600E1,2.931354218E0,5.735023956E0,7.293133850E0,9.730012265E0
1.049891500E1,2.679128723E0,5.729635162E0,7.626191254E0,9.907837445E0
1.050887300E1,2.496957550E0,5.757776642E0,7.871381378E0,1.006704692E1
1.051883200E1,2.399210815E0,5.660928040E0,8.120762787E0,1.018573056E1
1.052879000E1,2.033371582E0,5.516927490E0,8.274792480E0,1.015102357E1
1.053874900E1,1.789828033E0,5.393284607E0,8.238268433E0,1.000800030E1
1.054870700E1,1.830842743E0,5.374723206E0,8.378077698E0,1.012086066E1
1.055866600E1,1.904489594E0,5.422773285E0,7.720195770E0,9.624706408E0
1.056862400E1,2.518662415E0,5.830824738E0,6.258784790E0,8.917093951E0
1.057858200E1,2.495760040E0,5.895340576E0,7.621550903E0,9.953486668E0
1.058854100E1,2.385289764E0,5.415438538E0,8.251441040E0,1.015395790E1
1.059849900E1,2.456541595E0,5.170996857E0,8.860075378E0,1.054868432E1
1.060845800E1,2.262844391E0,5.135520630E0,9.380842438E0,1.093134217E1
1.061841600E1,2.118394775E0,5.135520630E0,9.288185120E0,1.082273308E1
1.062837500E1,2.212249603E0,5.173092499E0,9.235195312E0,1.081405413E1
1.063833300E1,2.632874908E0,5.273833008E0,9.079369354E0,1.082498465E1
1.064829200E1,3.085832977E0,5.328768768E0,8.750054169E0,1.069960699E1
1.065825000E1,2.329605560E0,5.251978455E0,8.225844269E0,1.003368595E1