"Time (s)","Acceleration x (m/s^2)","Acceleration y (m/s^2)","Acceleration z (m/s^2)","Absolute acceleration (m/s^2)"
3.696666681E-3,1.103804626E0,6.804998932E0,7.673642578E0,1.031557975E1
1.365666668E-2,8.499325562E-1,6.751410370E0,7.613168335E0,1.021098719E1
2.361566667E-2,7.758366394E-1,6.781946869E0,7.653434601E0,1.025532969E1
3.357466671E-2,9.539662170E-1,6.871460724E0,7.473658447E0,1.019718562E1
4.353466671E-2,1.226848755E0,6.874005432E0,7.258855133E0,1.007214408E1
5.349366670E-2,1.357826385E0,6.743177490E0,7.089257813E0,9.877839414E0
6.345366669E-2,1.474583588E0,6.479425964E0,6.960525513E0,9.623215315E0
7.341266668E-2,1.900897064E0,6.101162567E0,6.782545624E0,9.318826077E0
8.337266668E-2,2.104922791E0,6.268514557E0,6.783892822E0,9.473445863E0
9.333166666E-2,2.175575867E0,6.286477203E0,6.978338470E0,9.641064972E0
1.032916667E-1,2.101629639E0,6.165977783E0,7.177125092E0,9.692639153E0
1.132506667E-1,2.024090881E0,6.187233582E0,7.281458130E0,9.767212283E0
1.232106667E-1,1.992805939E0,6.287974091E0,7.292834473E0,9.833378276E0
1.331696667E-1,1.910028076E0,6.399941254E0,7.221882019E0,9.836820381E0
1.431296667E-1,1.700613556E0,6.454877014E0,7.011269989E0,9.680673044E0
1.530886667E-1,1.556912384E0,6.429130554E0,6.544540558E0,9.305305313E0
1.630476667E-1,1.719624023E0,6.403384094E0,6.036047974E0,8.966287402E0
1.730076667E-1,1.673669586E0,6.261778564E0,5.670508118E0,8.611951172E0
1.829666667E-1,1.173858948E0,6.236780548E0,5.605842590E0,8.467635300E0
1.929266667E-1,5.911207581E-1,6.619235229E0,5.549709320E0,8.658115979E0
2.028856667E-1,1.704954529E-1,7.051236877E0,5.490582275E0,8.938428493E0
2.128456667E-1,5.957611084E-2,7.362589417E0,5.566324768E0,9.230126958E0
2.228046667E-1,6.256988525E-2,7.529043274E0,5.804928589E0,9.507239533E0
2.327646667E-1,2.143542480E-1,7.495063934E0,6.309978333E0,9.799885595E0
2.427236667E-1,1.029858398E-1,7.015461273E0,6.536607056E0,9.589292714E0
2.526836667E-1,-5.185217285E-1,6.890022125E0,4.947212219E0,8.498010262E0
2.626426667E-1,-6.406677246E-1,6.716832275E0,7.233408051E0,9.891839211E0
2.726026667E-1,-5.234614563E-1,6.301895142E0,8.746012573E0,1.079261925E1
2.825616667E-1,1.462458801E-1,6.279292145E0,7.859855347E0,1.006122377E1
2.925206667E-1,7.803273010E-1,6.137237549E0,7.548353119E0,9.759724906E0
3.024806667E-1,8.548722839E-1,5.771997070E0,7.508236542E0,9.508962760E0
3.124396667E-1,3.927832031E-1,5.340145111E0,7.064409485E0,8.864384345E0
3.223996667E-1,4.076023865E-1,5.269192657E0,6.783443756E0,8.599165085E0
3.323586667E-1,6.038442993E-1,5.462291107E0,6.366111603E0,8.410031452E0
3.423186667E-1,6.330335999E-1,5.912255402E0,5.689967651E0,8.229898380E0
3.522776667E-1,4.610412598E-1,6.385571136E0,5.314847717E0,8.320798281E0
3.622376667E-1,-1.883084106E-1,6.668632507E0,5.689967651E0,8.768229664E0
3.721966667E-1,-7.782316589E-1,6.777156830E0,6.205196228E0,9.221711308E0
3.821566667E-1,-9.666897583E-1,6.944808197E0,6.570586395E0,9.609238032E0
3.921156667E-1,-1.138083344E0,6.972500610E0,6.552174683E0,9.635454921E0
4.020746667E-1,-1.458716583E0,6.889872437E0,6.460714874E0,9.557145649E0
4.120346667E-1,-1.943857727E0,6.658902740E0,6.361171875E0,9.411911400E0
4.219936667E-1,-2.107766876E0,6.731501770E0,5.944588165E0,9.224636889E0
4.319536667E-1,-2.107168121E0,6.877298584E0,6.016738129E0,9.377554639E0
4.419126667E-1,-2.136806488E0,6.876550140E0,6.636150055E0,9.792413970E0
4.518726667E-1,-2.498454437E0,6.667734375E0,7.225324860E0,1.014427304E1
4.618316667E-1,-2.924169159E0,6.771019592E0,6.874903564E0,1.008274618E1
4.717916667E-1,-2.840942230E0,7.132218475E0,5.583239594E0,9.492737092E0
4.817506667E-1,-3.110381927E0,7.141948242E0,4.438420258E0,8.965571639E0
4.917106667E-1,-3.674858093E0,6.981032867E0,4.334087219E0,9.001317344E0
5.016696667E-1,-3.417543182E0,7.698191528E0,5.135370941E0,9.864775158E0
5.116286667E-1,-1.173409882E0,9.379495239E0,6.773264923E0,1.162879785E1
5.215886667E-1,6.770420837E-1,1.077100159E1,8.499175873E0,1.373713404E1
5.315476667E-1,1.927092590E0,1.154249725E1,9.938133545E0,1.535283124E1
5.415076667E-1,3.603306885E0,1.182525925E1,1.041294617E1,1.616323064E1
5.514666667E-1,3.892206116E0,1.163126266E1,1.084045715E1,1.636921045E1
5.614266667E-1,3.078498230E0,1.185534668E1,1.190100174E1,1.707806308E1
5.713856667E-1,2.288141785E0,1.267758682E1,1.212703171E1,1.769241924E1
5.813456667E-1,1.452579346E0,1.317769684E1,1.233420090E1,1.810784892E1
5.913046667E-1,6.101312256E-1,1.316392548E1,1.274359955E1,1.833195362E1
6.012646667E-1,-3.143463135E-2,1.274015671E1,1.325328964E1,1.838375009E1
6.112236667E-1,-4.486170959E-1,1.255214767E1,1.387315063E1,1.871421858E1
6.211826667E-1,-1.043929138E0,1.264495468E1,1.442654984E1,1.921223587E1
6.311426667E-1,-1.827549591E0,1.286035675E1,1.421878189E1,1.925882841E1
6.411016667E-1,-2.580184479E0,1.314850754E1,1.364577347E1,1.912453231E1
6.510612500E-1,-3.375031586E0,1.335058731E1,1.339130264E1,1.920822757E1
6.610202500E-1,-3.941453705E0,1.351629272E1,1.332918182E1,1.938794250E1
6.709802500E-1,-4.236490173E0,1.370894211E1,1.310704376E1,1.943392752E1
6.809392500E-1,-4.379592590E0,1.382704651E1,1.292577072E1,1.942790764E1
6.908992500E-1,-4.709356842E0,1.357751541E1,1.273641449E1,1.920268785E1
7.008582500E-1,-5.406457214E0,1.311467789E1,1.274165359E1,1.906762418E1
7.108182500E-1,-6.378236389E0,1.259226425E1,1.273012756E1,1.900797638E1
7.207772500E-1,-7.268884277E0,1.217642899E1,1.260992752E1,1.897662703E1
7.307372500E-1,-7.860903168E0,1.188932602E1,1.273267227E1,1.911205941E1
7.406962500E-1,-8.140821075E0,1.167287613E1,1.283146683E1,1.916182522E1
7.506552500E-1,-8.177494812E0,1.144834305E1,1.261202316E1,1.889442003E1
7.606152500E-1,-8.284671936E0,1.103744751E1,1.208601700E1,1.834483152E1
7.705742500E-1,-8.387508087E0,1.057266403E1,1.119417160E1,1.753399539E1
7.805342500E-1,-8.421487427E0,1.022523651E1,1.034169434E1,1.680558104E1
7.904932500E-1,-8.595725098E0,9.899813232E0,9.222621460E0,1.602964562E1
8.004532500E-1,-8.907526703E0,9.642947388E0,8.072263641E0,1.541077242E1
8.104122500E-1,-9.192384338E0,9.157207489E0,7.344028015E0,1.490936371E1
8.203722500E-1,-9.566905518E0,8.498876495E0,6.500831451E0,1.435330598E1
8.303312500E-1,-1.010294083E1,7.785609741E0,5.382956085E0,1.384418104E1
8.402902500E-1,-1.048210236E1,6.989415436E0,4.335135040E0,1.332365542E1
8.502502500E-1,-1.035247192E1,6.281836853E0,3.321143646E0,1.255647818E1
8.602092500E-1,-9.681267700E0,5.587730255E0,2.458786926E0,1.144531812E1
8.701692500E-1,-8.853638763E0,4.909939728E0,1.700014801E0,1.026569422E1
8.801282500E-1,-8.110284576E0,4.121529236E0,1.165626068E0,9.171826606E0
8.900882500E-1,-7.569309540E0,3.250939636E0,7.553292847E-1,8.272458991E0
9.000472500E-1,-7.242239685E0,2.406994629E0,2.155517578E-1,7.634796746E0
9.100072500E-1,-7.191345520E0,1.719773712E0,-7.414082336E-1,7.431201664E0
9.199662500E-1,-7.257957001E0,1.274000702E0,-1.917961578E0,7.614433284E0
9.299252500E-1,-7.217541046E0,8.105644226E-1,-2.683469696E0,7.742798141E0
9.398852500E-1,-7.158713379E0,2.441423035E-1,-3.153941345E0,7.826501691E0
9.498442500E-1,-6.982829132E0,-2.389031982E-1,-3.409310303E0,7.774340754E0
9.598042500E-1,-6.638545074E0,-5.691165161E-1,-3.440295868E0,7.498653877E0
9.697632500E-1,-6.192622375E0,-6.804849243E-1,-3.393443298E0,7.094158797E0
9.797232500E-1,-5.641767883E0,-6.027964783E-1,-3.204236755E0,6.516137017E0
9.896822500E-1,-5.091512146E0,-4.360432434E-1,-2.863844604E0,5.857920754E0
9.996422500E-1,-4.598587189E0,-2.990780640E-1,-2.545157318E0,5.264435164E0
1.009601250E0,-4.228556671E0,-2.630030823E-1,-2.052082672E0,4.707537088E0
1.019561250E0,-4.085454254E0,-3.264710999E-1,-1.401834869E0,4.331588720E0
1.029520250E0,-3.799099731E0,-3.475772095E-1,-1.028511200E0,3.951177543E0
1.039479250E0,-3.396137695E0,-3.582051086E-1,-7.626640320E-1,3.499102538E0
1.049439250E0,-3.009791107E0,-2.724334717E-1,-6.997947693E-1,3.102059836E0
1.059398250E0,-2.380649414E0,-1.014889526E-1,-7.866142273E-1,2.509293443E0
1.069358250E0,-1.657054138E0,3.637435913E-2,-7.562274170E-1,1.821820907E0
1.079317250E0,-8.900491333E-1,1.604663086E-1,-6.472540283E-1,1.112148674E0
1.089277250E0,-1.061293030E-1,2.877017212E-1,-3.112028503E-1,4.369015031E-1
1.099236250E0,4.396357727E-1,4.640350342E-1,5.388793945E-3,6.392473423E-1
1.109196250E0,8.655001831E-1,5.837860107E-1,2.112107849E-1,1.065132231E0
1.119155250E0,1.015937347E0,6.117778015E-1,5.257067871E-1,1.297215633E0
1.129114250E0,8.226892090E-1,6.122268677E-1,7.252418518E-1,1.256031455E0
1.139074250E0,5.441184998E-1,5.161267090E-1,1.047072601E0,1.287949049E0
1.149033250E0,5.777984619E-1,6.863227844E-1,1.370849304E0,1.638327758E0
1.158993250E0,1.194665680E0,1.199605408E0,1.405577087E0,2.200437722E0
1.168952250E0,2.066303101E0,1.636247406E0,1.454824677E0,3.010552925E0
1.178912250E0,2.958298187E0,1.853595428E0,1.532363434E0,3.812542704E0
1.188871250E0,3.580254822E0,2.014361115E0,1.986219635E0,4.562997231E0
1.198830250E0,3.782484283E0,2.136956177E0,2.636467438E0,5.081803775E0
1.208790250E0,3.842659149E0,2.376308441E0,3.008593597E0,5.428121828E0
1.218749250E0,4.325255585E0,2.966381378E0,2.998564453E0,6.041410691E0
1.228709250E0,5.139412537E0,3.780837708E0,3.172203369E0,7.125389057E0
1.238668250E0,6.366111603E0,4.634213104E0,3.705843658E0,8.702676902E0
1.248628250E0,7.502398682E0,5.312303009E0,4.401297455E0,1.019205419E1
1.258587250E0,7.895780640E0,5.867797852E0,5.169799347E0,1.111311067E1
1.268547250E0,7.566166077E0,6.422394562E0,5.717809753E0,1.145370549E1
1.278506250E0,7.330106964E0,6.951693878E0,5.995033264E0,1.174720987E1
1.288466250E0,8.068371735E0,7.600893860E0,6.124514008E0,1.266419685E1
1.298425250E0,9.785151672E0,8.362210693E0,6.155050507E0,1.426745975E1
1.308384250E0,1.154668854E1,8.848549347E0,6.350693665E0,1.587306372E1
1.318344250E0,1.242221786E1,9.076824646E0,6.897805939E0,1.686060406E1
1.328303250E0,1.260543686E1,9.348809052E0,7.462880859E0,1.737791299E1
1.338263250E0,1.200533478E1,9.694140930E0,7.736511841E0,1.726146132E1
1.348222250E0,1.124297012E1,1.008542725E1,7.767946472E0,1.698414591E1
1.358182250E0,1.139969421E1,1.052551208E1,7.500602417E0,1.723364353E1
1.368141250E0,1.229498245E1,1.091335556E1,7.020401001E0,1.787607209E1
1.378101250E0,1.338097412E1,1.102008362E1,6.870412903E0,1.864658909E1
1.388060250E0,1.389754990E1,1.073986633E1,7.130272522E0,1.895593332E1
1.398019250E0,1.362825989E1,1.024424698E1,7.519463196E0,1.863374333E1
1.407979250E0,1.279449371E1,9.907746735E0,7.662864990E0,1.790480423E1
1.417938250E0,1.173080566E1,9.855056305E0,7.991132355E0,1.727981865E1
1.427898250E0,1.085437820E1,9.993967438E0,8.540789337E0,1.704822553E1
1.437857250E0,1.037238052E1,1.017239639E1,9.128766632E0,1.715803912E1
1.447817250E0,9.876611481E0,1.009440857E1,9.773026886E0,1.717430037E1
1.457776250E0,9.353299713E0,9.841734009E0,1.054706726E1,1.719257315E1
1.467735250E0,8.889114990E0,9.617649994E0,1.109971802E1,1.716739051E1
1.477695250E0,8.284821625E0,9.532926178E0,1.145792313E1,1.705282831E1
1.487654250E0,7.412286072E0,9.709558868E0,1.176328812E1,1.695855140E1
1.497614250E0,6.406228180E0,1.032433044E1,1.202329742E1,1.709360230E1
1.507573250E0,5.416785736E0,1.118923187E1,1.264136215E1,1.772976353E1
1.517533250E0,5.104834442E0,1.190609116E1,1.346270416E1,1.868311389E1
1.527492250E0,5.313051453E0,1.250394791E1,1.405023239E1,1.954446876E1
1.537452250E0,5.372178497E0,1.313323929E1,1.438059540E1,2.020256914E1
1.547411250E0,4.947062531E0,1.363978592E1,1.478670090E1,2.071626682E1
1.557370250E0,3.793710938E0,1.408421173E1,1.555924438E1,2.132715050E1
1.567330250E0,2.320624237E0,1.455273743E1,1.650048706E1,2.212314482E1
1.577289250E0,8.996292114E-1,1.461590607E1,1.751792130E1,2.283224933E1
1.587249250E0,-2.891986084E-1,1.438703201E1,1.822594894E1,2.322187634E1
1.597208250E0,-1.007105713E0,1.414154251E1,1.839285187E1,2.322271488E1
1.607168250E0,-1.722468109E0,1.367496277E1,1.832728821E1,2.293165925E1
1.617127250E0,-2.953059082E0,1.297576675E1,1.832683914E1,2.264871108E1
1.627086250E0,-4.413721619E0,1.211685287E1,1.843132187E1,2.249472578E1
1.637046250E0,-5.755830688E0,1.133607651E1,1.835243591E1,2.232595175E1
1.647005500E0,-6.595285034E0,1.075423645E1,1.791534485E1,2.191143463E1
1.656965500E0,-6.952891388E0,1.027702881E1,1.726165421E1,2.125852125E1
1.666924500E0,-7.345973969E0,9.772727509E0,1.638283173E1,2.044178837E1
1.676884500E0,-7.718698883E0,9.252708893E0,1.554262894E1,1.966632270E1
1.686843500E0,-8.334218903E0,8.653205566E0,1.510463974E1,1.929993039E1
1.696803500E0,-9.365873566E0,7.892936554E0,1.494866409E1,1.932564600E1
1.706762500E0,-1.105555984E1,7.274273071E0,1.443942307E1,1.958666359E1
1.716721500E0,-1.264495468E1,6.844666443E0,1.367690872E1,1.984444934E1
1.726681500E0,-1.376717102E1,6.363866272E0,1.263178207E1,1.973817900E1
1.736640500E0,-1.436113586E1,6.012097778E0,1.117171829E1,1.916232848E1
1.746600500E0,-1.411908920E1,5.720803528E0,9.670789490E0,1.804440197E1
1.756559500E0,-1.337304062E1,5.419929199E0,8.266260223E0,1.662963938E1
1.766519500E0,-1.242805573E1,5.027445374E0,6.981032867E0,1.511511151E1
1.776478500E0,-1.155986115E1,4.720583496E0,5.905669098E0,1.381271971E1
1.786437500E0,-1.099134338E1,4.514162750E0,4.993466034E0,1.288883229E1
1.796397500E0,-1.064750839E1,4.389921112E0,4.202959900E0,1.225992309E1
1.806356500E0,-1.023975632E1,4.218377838E0,3.598666534E0,1.164464348E1
1.816316500E0,-9.783654785E0,3.864663391E0,3.204386444E0,1.099652748E1
1.826275500E0,-9.322912903E0,3.425177307E0,2.598446503E0,1.026647305E1
1.836235500E0,-8.783883820E0,3.100352783E0,1.914069672E0,9.509598574E0
1.846194500E0,-8.084538116E0,2.815495148E0,1.303938446E0,8.659504891E0
1.856153500E0,-7.355853424E0,2.526895294E0,7.484436035E-1,7.813702532E0
1.866113500E0,-6.832242279E0,2.377955017E0,2.278262329E-1,7.237824909E0
1.876072500E0,-6.437962189E0,2.335443420E0,-2.549198914E-1,6.853220941E0
1.886032500E0,-6.142776031E0,2.285746765E0,-5.954617310E-1,6.581254464E0
1.895991500E0,-5.812263336E0,2.202669525E0,-7.530839539E-1,6.261093640E0
1.905951500E0,-5.307512970E0,2.178270264E0,-8.822653198E-1,5.804562633E0
1.915910500E0,-4.703369293E0,2.158361664E0,-9.648934937E-1,5.264145442E0
1.925869500E0,-4.107308807E0,2.092947693E0,-9.921368408E-1,4.715373919E0
1.935829500E0,-3.557951202E0,1.908830566E0,-8.827143860E-1,4.133017732E0
1.945788500E0,-3.188968506E0,1.648821259E0,-8.466394043E-1,3.688486133E0
1.955748500E0,-3.059038696E0,1.377435608E0,-1.190474396E0,3.559814024E0
1.965707500E0,-2.886148224E0,1.210832062E0,-1.611399078E0,3.520308629E0
1.975667500E0,-2.706970825E0,9.630972290E-1,-1.822909241E0,3.402682092E0
1.985626500E0,-2.658920746E0,6.966513062E-1,-1.975292358E0,3.384813507E0
1.995585500E0,-2.527494049E0,5.441184998E-1,-2.117346954E0,3.341773367E0
2.005545500E0,-2.270029449E0,4.848417664E-1,-2.237397308E0,3.223980762E0
2.015504500E0,-1.901944885E0,4.643344116E-1,-2.222278748E0,2.961675813E0
2.025464500E0,-1.456471252E0,4.421804810E-1,-2.159259796E0,2.641824172E0
2.035423500E0,-1.010548553E0,4.004173279E-1,-2.088157654E0,2.354133557E0
2.045382500E0,-5.739065552E-1,2.577639771E-1,-1.754202118E0,1.863608347E0
2.055342500E0,-3.688330078E-1,3.697311401E-2,-1.063688049E0,1.126426680E0
2.065301500E0,-2.433938599E-1,-4.041595459E-3,-3.842509460E-1,4.548688768E-1
2.075261500E0,3.773652649E-1,1.857637024E-1,2.191442871E-1,4.742751468E-1
2.085220500E0,1.660496979E0,7.173083496E-1,8.376580811E-1,1.993352088E0
2.095180500E0,2.845732269E0,1.402134247E0,1.325343933E0,3.438125817E0
2.105139500E0,3.549568634E0,2.019749908E0,1.730251923E0,4.435380355E0
2.115098500E0,4.149071960E0,2.630779266E0,2.322121124E0,5.433971310E0
2.125058500E0,4.156556396E0,3.046165466E0,3.247197418E0,6.091007815E0
2.135017500E0,3.642974396E0,3.213816833E0,4.507426758E0,6.626973447E0
2.144977500E0,3.477568359E0,3.299887848E0,5.928721161E0,7.624465628E0
2.154936500E0,3.782035217E0,3.433110809E0,7.106771393E0,8.751927779E0
2.164896500E0,5.113815765E0,3.789220276E0,7.881709900E0,1.013067880E1
2.174855500E0,6.663842468E0,4.302502899E0,8.129444733E0,1.135808960E1
2.184814500E0,8.031099243E0,5.365442505E0,7.930658112E0,1.249727436E1
2.194774500E0,9.035809937E0,6.711144104E0,7.542664948E0,1.354906310E1
2.204733500E0,9.100325775E0,7.782915344E0,7.282505951E0,1.401515585E1
2.214693500E0,8.152496796E0,8.247998199E0,7.134763184E0,1.361607594E1
2.224652500E0,7.640561371E0,8.446934509E0,7.186854858E0,1.346773045E1
2.234612500E0,7.524103546E0,8.298592987E0,6.853198700E0,1.313183583E1
2.244571500E0,8.392597504E0,8.102800140E0,6.445296936E0,1.332789989E1
2.254530500E0,1.011761032E1,8.037086792E0,6.446494446E0,1.444015559E1
2.264490500E0,1.162707138E1,8.497828674E0,6.091582489E0,1.563679182E1
2.274449500E0,1.272578659E1,9.342821503E0,5.634732513E0,1.676258239E1
2.284409500E0,1.309476929E1,1.005324417E1,4.956193542E0,1.723672113E1
2.294368500E0,1.319760544E1,1.052521271E1,4.468507690E0,1.746208615E1
2.304328500E0,1.321287369E1,1.057460999E1,4.526287537E0,1.751826722E1
2.314287500E0,1.314925598E1,1.041728714E1,4.922214203E0,1.748287725E1
2.324246500E0,1.286619461E1,1.037881714E1,5.265899506E0,1.734902033E1
2.334206500E0,1.273057663E1,1.060155396E1,5.645061035E0,1.750220677E1
2.344165500E0,1.274524612E1,1.083521805E1,6.035000153E0,1.778382624E1
2.354125500E0,1.265827698E1,1.120929016E1,6.757697296E0,1.820842208E1
2.364084500E0,1.267085083E1,1.147828079E1,8.115972748E0,1.892539047E1
2.374043500E0,1.281470169E1,1.150028503E1,9.823771362E0,1.982371355E1
2.384003500E0,1.230471222E1,1.115659973E1,1.176388687E1,2.035349343E1
2.393962500E0,1.100885696E1,1.058014847E1,1.309671524E1,2.011612347E1
2.403922500E0,9.694589996E0,1.003393433E1,1.392479324E1,1.971204657E1
2.413881500E0,8.061036987E0,9.426946564E0,1.446995956E1,1.905852483E1
2.423841500E0,6.379433899E0,9.358688507E0,1.478146179E1,1.862186457E1
2.433800500E0,4.944368134E0,1.014545242E1,1.528785873E1,1.900251578E1
2.443759500E0,4.897066498E0,1.145942001E1,1.625634476E1,2.048336672E1
2.453719500E0,5.932164001E0,1.197539703E1,1.728590378E1,2.184955774E1
2.463678500E0,6.430328064E0,1.227372665E1,1.802162384E1,2.273262877E1
2.473638500E0,5.655389557E0,1.272533752E1,1.879446671E1,2.339122966E1
2.483597500E0,3.829935608E0,1.266501297E1,1.959739700E1,2.364590725E1
2.493556500E0,1.332379303E0,1.231055008E1,2.043520477E1,2.389398401E1
2.503516500E0,-1.509910126E0,1.226250000E1,2.101479950E1,2.437766463E1
2.513475500E0,-3.441792755E0,1.232207611E1,2.142210251E1,2.495167275E1
2.523435500E0,-3.811673584E0,1.237252121E1,2.140878021E1,2.501887301E1
2.533394500E0,-3.083138580E0,1.241937378E1,2.092259125E1,2.452552575E1
2.543354500E0,-2.412832489E0,1.202060303E1,1.991952713E1,2.339025906E1
2.553313500E0,-2.572849731E0,1.127036316E1,1.878788040E1,2.205958049E1
2.563272500E0,-3.522025909E0,1.036070480E1,1.790127411E1,2.098105062E1
2.573232500E0,-4.774621124E0,9.394613800E0,1.690419754E1,1.992003187E1
2.583191500E0,-5.877078552E0,8.632548523E0,1.584889206E1,1.898020879E1
2.593151500E0,-6.737189941E0,8.082292786E0,1.479418533E1,1.815436875E1
2.603110500E0,-7.321874084E0,7.478448486E0,1.346584763E1,1.705479651E1
2.613069500E0,-7.926616516E0,6.705455933E0,1.199470688E1,1.586402792E1
2.623029500E0,-8.500373383E0,6.019432526E0,1.058314224E1,1.484900048E1
2.632988500E0,-8.990903320E0,5.398224335E0,9.491911469E0,1.414473583E1
2.642948500E0,-9.468859406E0,4.886887665E0,8.622369690E0,1.370715976E1
2.652907792E0,-1.010383896E1,4.515659637E0,7.954907684E0,1.362935435E1
2.662867792E0,-1.080438217E1,4.389621735E0,7.516619110E0,1.387454561E1
2.672826792E0,-1.140643021E1,4.503085785E0,7.100634155E0,1.417051294E1
2.682785792E0,-1.175924652E1,4.808151398E0,6.645281067E0,1.433729260E1
2.692745792E0,-1.176268936E1,5.082381134E0,6.443650360E0,1.434266673E1
2.702704792E0,-1.165012344E1,5.188959503E0,6.273454285E0,1.421291334E1
2.712664792E0,-1.117037109E1,5.203928375E0,6.157595215E0,1.377584987E1
2.722623792E0,-1.041908340E1,4.999603271E0,6.181096344E0,1.310569662E1
2.732582792E0,-9.714648285E0,4.789889374E0,5.163811798E0,1.199926597E1
2.742542792E0,-8.906329193E0,4.888534241E0,3.935765533E0,1.089544478E1
2.752501792E0,-8.184530182E0,4.924459534E0,2.907703400E0,9.984566844E0
2.762461792E0,-7.689659271E0,4.719236298E0,1.966011658E0,9.234026899E0
2.772420792E0,-7.400909729E0,4.463118896E0,1.212927704E0,8.727203946E0
2.782379792E0,-7.153324585E0,4.130360870E0,6.105802917E-1,8.282677214E0
2.792339792E0,-6.935228119E0,3.814817047E0,1.231938171E-1,7.916147730E0
2.802298792E0,-6.649023285E0,3.573967896E0,-3.219804382E-1,7.555556139E0
2.812258792E0,-6.265371094E0,3.282224579E0,-6.491999817E-1,7.102769442E0
2.822217792E0,-5.733527069E0,3.127895508E0,-8.424481201E-1,6.585345989E0
2.832176792E0,-5.130431213E0,3.070714417E0,-1.005309448E0,6.063106345E0
2.842136792E0,-4.605772247E0,2.994073792E0,-1.072669373E0,5.597163161E0
2.852095792E0,-4.102369080E0,2.928360443E0,-1.041085052E0,5.146706232E0
2.862055792E0,-3.492088165E0,2.900967407E0,-1.102906494E0,4.671904792E0
2.872014792E0,-2.947221222E0,2.827320557E0,-1.297501831E0,4.285249755E0
2.881973792E0,-2.389481049E0,2.769840088E0,-1.478924561E0,3.945738416E0
2.891933792E0,-2.041155396E0,2.548450470E0,-1.490600281E0,3.589262368E0
2.901892792E0,-2.022294617E0,2.207010498E0,-1.477427673E0,3.338167669E0
2.911852792E0,-2.136956177E0,1.894011383E0,-1.459315338E0,3.206783759E0
2.921811792E0,-2.114053802E0,1.629661102E0,-1.324894867E0,2.979994160E0
2.931771792E0,-2.054777069E0,1.373244324E0,-1.253942413E0,2.771331873E0
2.941730792E0,-1.817520447E0,1.283730469E0,-1.268911285E0,2.561538667E0
2.951689792E0,-1.157991943E0,1.339264984E0,-1.252744904E0,2.168858186E0
2.961649792E0,-6.143225098E-1,1.377136230E0,-1.188079376E0,1.919747105E0
2.971608792E0,-2.239343262E-1,1.325643311E0,-9.484277344E-1,1.645293875E0
2.981568792E0,1.576222229E-1,1.311422882E0,-4.950205994E-1,1.410574399E0
2.991527792E0,4.574487305E-1,1.390757904E0,1.652563477E-1,1.473355541E0
3.001486792E0,8.821156311E-1,1.508562927E0,8.264314270E-1,1.933100876E0
3.011446792E0,1.424737244E0,1.679208069E0,1.396296387E0,2.607538984E0
3.021405792E0,1.962269440E0,1.897603912E0,1.751358032E0,3.243247897E0
3.031365792E0,2.225272522E0,1.985620880E0,1.934577026E0,3.554872198E0
3.041324792E0,2.401306458E0,1.876797180E0,2.115850067E0,3.710183535E0
3.051283792E0,2.451751556E0,1.696571960E0,2.388133850E0,3.820029502E0
3.061243792E0,2.586172028E0,1.578018494E0,2.630030823E0,4.011918525E0
3.071202792E0,3.063080292E0,1.679507446E0,2.787802734E0,4.469345614E0
3.081162792E0,3.926634521E0,2.009271698E0,2.971021729E0,5.318138916E0
3.091121792E0,4.740492096E0,2.449655914E0,3.158282318E0,6.200631146E0
3.101080792E0,5.070855103E0,2.956801300E0,3.351979523E0,6.759586683E0
3.111040792E0,4.978796539E0,3.439846802E0,3.734434204E0,7.111044918E0
3.120999792E0,4.883594513E0,3.815116425E0,4.384232941E0,7.591186151E0
3.130959792E0,5.256020050E0,4.220473480E0,5.124892731E0,8.467742832E0
3.140918792E0,6.051016846E0,4.669090576E0,6.178701324E0,9.828100617E0
3.150877792E0,6.762187958E0,4.958588562E0,7.276668091E0,1.110246302E1
3.160837792E0,7.442074127E0,5.442681885E0,7.910599823E0,1.214845023E1
3.170796792E0,8.026758270E0,6.187682648E0,7.912396088E0,1.285777106E1
3.180756792E0,8.776399384E0,7.039261780E0,8.059839478E0,1.383970393E1
3.190715792E0,9.410929871E0,7.727231140E0,8.735085297E0,1.498590729E1
3.200674792E0,9.859397278E0,8.264014893E0,9.552535400E0,1.602350116E1
3.210634792E0,1.003153931E1,8.716823273E0,1.027104126E1,1.679610304E1
3.220593792E0,9.977651367E0,8.927135925E0,1.076725937E1,1.718083691E1
3.230553792E0,1.018407211E1,9.040749664E0,1.099718124E1,1.750395597E1
3.240512792E0,1.041264679E1,8.982670441E0,1.068493057E1,1.741491667E1
3.250471792E0,1.049168243E1,8.862320709E0,9.960886230E0,1.696571198E1
3.260431792E0,1.062490540E1,8.862919464E0,9.543105011E0,1.680805787E1
3.270390792E0,1.085318069E1,8.850644989E0,9.569599915E0,1.696180092E1
3.280350792E0,1.116797607E1,9.054970093E0,1.023197250E1,1.764679671E1
3.290309792E0,1.119536911E1,9.368867340E0,1.101229980E1,1.828613441E1
3.300268792E0,1.114746872E1,9.471703491E0,1.148037643E1,1.859511412E1
3.310228792E0,1.090811646E1,9.551188202E0,1.177780792E1,1.867964026E1
3.320187792E0,1.043554916E1,9.818382568E0,1.204051163E1,1.871564166E1
3.330147792E0,9.871671753E0,1.033480865E1,1.266261795E1,1.909450357E1
3.340106792E0,9.675130463E0,1.061966629E1,1.349458786E1,1.971013351E1
3.350065792E0,9.882149963E0,1.053284683E1,1.433853287E1,2.035168974E1
3.360025792E0,9.917626190E0,1.031100815E1,1.491124191E1,2.066449452E1
3.369984792E0,9.576784973E0,9.990225220E0,1.530686920E1,2.063539811E1
3.379944792E0,8.666976929E0,9.438023529E0,1.517933441E1,1.986466638E1
3.389903792E0,7.211703186E0,8.832682343E0,1.498009872E1,1.882626617E1
3.399862792E0,5.714516602E0,8.529113617E0,1.518981262E1,1.833389993E1
3.409822792E0,4.720433807E0,8.432265015E0,1.565309921E1,1.839579038E1
3.419781792E0,4.036655731E0,8.514444122E0,1.618374573E1,1.872709198E1
3.429741792E0,3.424877930E0,8.701405334E0,1.662442932E1,1.907395853E1
3.439700792E0,2.709814911E0,9.031319275E0,1.697769470E1,1.942034866E1
3.449659792E0,1.610650635E0,9.471853180E0,1.720222778E1,1.970347276E1
3.459619792E0,2.679428101E-1,9.978549500E0,1.738320145E1,2.004542182E1
3.469578792E0,-1.084644470E0,1.037253021E1,1.787223450E1,2.069257361E1
3.479538792E0,-1.980830841E0,1.052655991E1,1.844030319E1,2.132549967E1
3.489497792E0,-2.307152252E0,1.019739441E1,1.878084503E1,2.149488182E1
3.499456792E0,-2.386187897E0,9.737700348E0,1.858370499E1,2.111565277E1
3.509416792E0,-2.644251251E0,9.318721619E0,1.763093628E1,2.011667347E1
3.519375792E0,-3.252586212E0,8.753497009E0,1.643507309E1,1.890276843E1
3.529335792E0,-4.235292664E0,8.068222046E0,1.510344223E1,1.763938429E1
3.539294792E0,-5.292843475E0,7.503895569E0,1.390623184E1,1.666451094E1
3.549253792E0,-6.157295837E0,6.966513062E0,1.276305908E1,1.579051213E1
3.559213792E0,-6.881190491E0,6.553372192E0,1.156135803E1,1.496537568E1
3.569172792E0,-7.415579224E0,6.396049347E0,1.045770309E1,1.432703097E1
3.579132792E0,-7.812853088E0,6.452032928E0,9.355245667E0,1.379093992E1
3.589091792E0,-8.272247772E0,6.533014526E0,8.510851593E0,1.354787647E1
3.599050792E0,-8.743467865E0,6.573879547E0,8.134234772E0,1.363194403E1
3.609010792E0,-9.010662231E0,6.449188843E0,8.049510956E0,1.369593725E1
3.618969792E0,-9.266480255E0,6.265371094E0,8.141569519E0,1.383501664E1
3.628929792E0,-9.635912018E0,5.962401123E0,8.147108002E0,1.395623145E1
3.638888792E0,-1.002824615E1,5.690865784E0,7.736212463E0,1.388526765E1
3.648847750E0,-1.031564850E1,5.637277222E0,7.020850067E0,1.369247363E1
3.658807750E0,-1.039468414E1,5.633684692E0,6.244264984E0,1.337081549E1
3.668766750E0,-1.037911652E1,5.531147919E0,5.158722382E0,1.284258827E1
3.678725750E0,-1.010967682E1,5.366340637E0,4.229754181E0,1.220221282E1
3.688685750E0,-9.630972290E0,5.166356506E0,3.331023102E0,1.142552326E1
3.698644750E0,-9.236243134E0,5.038672028E0,2.574346619E0,1.083160485E1
3.708604750E0,-8.970246277E0,5.047803040E0,2.124981079E0,1.051005130E1
3.718563750E0,-8.788374481E0,5.129832458E0,1.706451416E0,1.031807557E1
3.728522750E0,-8.555009766E0,5.140310669E0,1.609303436E0,1.010944328E1
3.738482750E0,-8.198750610E0,4.972509613E0,1.882934418E0,9.771939697E0
3.748441750E0,-7.963889008E0,4.639003143E0,1.967957611E0,9.424263125E0
3.758401750E0,-7.789651337E0,4.509372711E0,1.577419739E0,9.137908033E0
3.768360750E0,-7.574698334E0,4.582271118E0,1.283431091E0,8.945415519E0
3.778319750E0,-7.438631287E0,4.833448792E0,1.371897125E0,8.976500675E0
3.788279750E0,-6.818919983E0,5.175487518E0,1.533710632E0,8.696873524E0
3.798238750E0,-5.814059601E0,5.373974762E0,1.508263550E0,8.059637257E0
3.808198750E0,-4.671186218E0,5.396877136E0,1.370998993E0,7.268142937E0
3.818157750E0,-3.553460541E0,5.272485809E0,1.335672455E0,6.496938458E0
3.828116750E0,-2.867736511E0,4.951553192E0,1.399290161E0,5.890654010E0
3.838076750E0,-2.466121674E0,4.605622559E0,1.477128296E0,5.429127302E0
3.848035750E0,-2.268981628E0,4.263583832E0,1.426234131E0,5.035927771E0
3.857994750E0,-2.176024933E0,3.959116974E0,1.395248566E0,4.728256579E0
3.867954750E0,-2.014361115E0,3.556454315E0,1.555864563E0,4.373412001E0
3.877913750E0,-1.900447998E0,2.993475037E0,1.603016510E0,3.891305349E0
3.887873750E0,-1.758094025E0,2.482737122E0,1.100511475E0,3.235120356E0
3.897832750E0,-1.428778839E0,2.141895905E0,1.063388672E0,2.785663746E0
3.907791750E0,-1.242566071E0,1.887125702E0,1.150357819E0,2.535455968E0
3.917751750E0,-1.270408173E0,1.815574493E0,8.957373047E-1,2.390103133E0
3.927710750E0,-1.291663971E0,1.903441772E0,7.430548096E-1,2.417357409E0
3.937670750E0,-1.221459961E0,1.975591736E0,8.008346558E-1,2.456880805E0
3.947629750E0,-8.934919739E-1,1.987566833E0,1.035995636E0,2.412889716E0
3.957588750E0,-2.763253784E-1,1.974394226E0,1.232237549E0,2.343714499E0
3.967548750E0,5.683680725E-1,1.963317261E0,1.752555542E0,2.692416732E0
3.977507750E0,1.389410706E0,1.997595978E0,2.188149719E0,3.272438081E0
3.987466750E0,1.929487610E0,2.114502869E0,2.108365631E0,3.555172352E0
3.997426750E0,2.246827698E0,2.311493225E0,1.780996399E0,3.682822804E0
4.007385750E0,2.437082062E0,2.400108948E0,1.741029510E0,3.838108348E0
4.017345750E0,3.017125854E0,2.262545013E0,1.787582703E0,4.173441060E0
4.027304750E0,3.871549072E0,1.962718506E0,2.106120300E0,4.824613857E0
4.037263750E0,4.527784424E0,1.809137878E0,2.207459564E0,5.352260212E0
4.047223750E0,5.266198883E0,2.022294617E0,2.146985321E0,6.035898621E0
4.057182750E0,5.824088745E0,2.400408325E0,1.976190491E0,6.602067759E0
4.067142750E0,6.363566895E0,2.791694641E0,1.857038269E0,7.192852961E0
4.077101750E0,6.945257263E0,3.046464844E0,1.745520172E0,7.782312456E0
4.087060750E0,7.394772491E0,3.382815399E0,1.496737518E0,8.268393038E0
4.097020750E0,8.154293060E0,3.769760742E0,1.798959045E0,9.161869079E0
4.106979750E0,8.776848450E0,4.033811646E0,2.088157654E0,9.882565835E0
4.116938750E0,9.439370728E0,4.504432983E0,2.572999420E0,1.077088493E1
4.126898750E0,1.024903702E1,4.945715332E0,3.229983215E0,1.182944003E1
4.136857750E0,1.075199112E1,5.262007599E0,3.183579712E0,1.238665479E1
4.146817750E0,1.084479813E1,5.786367188E0,2.683170319E0,1.258137888E1
4.156776750E0,1.098071548E1,6.058201904E0,2.833158417E0,1.285708791E1
4.166735750E0,1.146465912E1,6.078110504E0,3.306025085E0,1.339072955E1
4.176695750E0,1.178873520E1,6.206992493E0,3.547023926E0,1.378703783E1
4.186654750E0,1.229632965E1,6.067033539E0,4.468956757E0,1.442151841E1
4.196614750E0,1.264764908E1,5.811065826E0,5.196893005E0,1.485729485E1
4.206573750E0,1.273865982E1,5.697003021E0,5.888155518E0,1.514594576E1
4.216532750E0,1.153216873E1,6.378386078E0,6.284680939E0,1.460040887E1
4.226492750E0,1.064795746E1,7.739954681E0,6.968159637E0,1.489433266E1
4.236451750E0,1.063673080E1,8.380921783E0,8.084538116E0,1.577148213E1
4.246410750E0,1.084898941E1,8.431965637E0,9.690398712E0,1.681375755E1
4.256370750E0,1.102292770E1,8.163723450E0,1.087683151E1,1.750590699E1
4.266329750E0,1.146870071E1,7.425458679E0,1.142109970E1,1.780758409E1
4.276289750E0,1.138951538E1,6.849905548E0,1.084943848E1,1.715670662E1
4.286248750E0,1.152169052E1,6.690636749E0,1.094718521E1,1.724397972E1
4.296207750E0,1.104253693E1,6.674320679E0,1.131841324E1,1.716364345E1
4.306167750E0,1.064256866E1,6.919211426E0,1.252670059E1,1.783418017E1
4.316126750E0,1.003228775E1,6.835236053E0,1.387734192E1,1.843767524E1
4.326085750E0,9.573491821E0,6.214626617E0,1.502889725E1,1.887170056E1
4.336045750E0,9.280850372E0,5.602100372E0,1.572225540E1,1.909730418E1
4.346004750E0,8.692573700E0,5.340294800E0,1.625394974E1,1.919037436E1
4.355964750E0,8.088130646E0,5.309009857E0,1.698323318E1,1.954568117E1
4.365923750E0,7.368576965E0,5.292244720E0,1.765578461E1,1.985020178E1
4.375882750E0,6.048921204E0,5.229824524E0,1.822834396E1,1.990510075E1
4.385842750E0,4.514462128E0,5.070406036E0,1.912363220E1,2.029292227E1
4.395801750E0,2.778671722E0,4.711602173E0,1.998074982E1,2.071594977E1
4.405760750E0,1.149609375E0,4.730462952E0,2.040781174E1,2.098041137E1
4.415720750E0,4.053570557E-1,5.080584869E0,2.053145462E1,2.115460436E1
4.425679750E0,-1.782792664E-1,5.587580566E0,1.994347733E1,2.071219756E1
4.435639750E0,-6.500981140E-1,5.966293030E0,1.920401505E1,2.011997699E1
4.445598750E0,-1.065334625E0,6.138884125E0,1.856948456E1,1.958689850E1
4.455557750E0,-1.456022186E0,6.216422882E0,1.829989517E1,1.938169439E1
4.465517750E0,-1.727856903E0,6.318061523E0,1.803973618E1,1.919206795E1
4.475476750E0,-1.935325470E0,6.299649811E0,1.804602310E1,1.921171575E1
4.485435750E0,-2.140249329E0,6.004613342E0,1.797956131E1,1.907618079E1
4.495395750E0,-2.521656189E0,5.541925507E0,1.674567719E1,1.781823203E1
4.505354750E0,-2.574496307E0,4.990023193E0,1.533306473E1,1.632884676E1
4.515314750E0,-2.471959534E0,4.742587738E0,1.391715912E1,1.490939436E1
4.525273750E0,-2.504441986E0,4.881648560E0,1.247939896E1,1.363224562E1
4.535232750E0,-2.674188995E0,5.210963745E0,1.169443130E1,1.307918780E1
4.545192750E0,-3.070714417E0,5.487738190E0,1.095541809E1,1.263193346E1
4.555151750E0,-3.500321045E0,5.814808044E0,1.005444168E1,1.213078883E1
4.565110750E0,-4.065695343E0,5.964496765E0,9.542206879E0,1.196489918E1
4.575070750E0,-5.031786346E0,5.894143066E0,8.883426819E0,1.178876874E1
4.585029750E0,-6.216273193E0,5.826633453E0,8.270900574E0,1.187432129E1
4.594989750E0,-7.115453339E0,5.672454071E0,7.814649353E0,1.199479704E1
4.604948750E0,-7.455246735E0,4.946912842E0,8.056845703E0,1.204015836E1
4.614907750E0,-7.538174286E0,4.017046509E0,7.616311798E0,1.144416618E1
4.624867750E0,-7.508236542E0,3.847898254E0,6.879992981E0,1.088642459E1
4.634826750E0,-7.553741913E0,4.214785309E0,5.796246643E0,1.041248804E1
4.644785750E0,-7.445666656E0,4.736899567E0,4.993316345E0,1.013949592E1
4.654746667E0,-7.230863342E0,5.353766785E0,4.364773407E0,9.999972518E0
4.664705667E0,-7.061565399E0,5.960904236E0,4.127067719E0,1.012080892E1
4.674664667E0,-6.709048462E0,6.280789032E0,4.374353485E0,1.017814377E1
4.684624667E0,-6.336323547E0,6.377038879E0,4.382436676E0,1.000106855E1
4.694583667E0,-6.153852997E0,6.229894867E0,4.001778259E0,9.627861964E0
4.704543667E0,-6.048621826E0,5.858367462E0,3.799099731E0,9.237935597E0
4.714502667E0,-6.118376770E0,5.394033051E0,3.522624664E0,8.884762877E0
4.724461667E0,-6.325545959E0,4.904251556E0,3.296445007E0,8.656255813E0
4.734421667E0,-6.372847595E0,4.413122864E0,2.697989502E0,8.207800390E0
4.744380667E0,-6.243815918E0,4.030219116E0,2.225122833E0,7.757517320E0
4.754339667E0,-6.051914978E0,3.916006622E0,1.620829468E0,7.388360504E0
4.764299667E0,-5.535937958E0,4.024381256E0,7.587721252E-1,6.886072081E0
4.774258667E0,-4.544250183E0,4.085903320E0,2.171983337E-1,6.114899082E0
4.784218667E0,-3.484903107E0,4.100123749E0,-1.516346741E-1,5.383173552E0
4.794177667E0,-2.559976501E0,4.180506592E0,-5.367837524E-1,4.931353957E0
4.804136667E0,-1.797462158E0,3.868555298E0,-5.450166321E-1,4.300422471E0
4.814096667E0,-1.468296661E0,3.438499603E0,-7.616162109E-1,3.815656413E0
4.824055667E0,-1.401685181E0,3.116519165E0,-1.209035797E0,3.624800768E0
4.834014667E0,-1.335223389E0,2.907553711E0,-1.512305145E0,3.538892049E0
4.843974667E0,-9.436376953E-1,2.613714752E0,-1.162183228E0,3.012080138E0
4.853933667E0,-4.282594299E-1,2.495760040E0,-9.038204956E-1,2.688701509E0
4.863892667E0,6.795867920E-2,2.590213623E0,-8.556207275E-1,2.728719814E0
4.873852667E0,3.622467041E-1,2.774779816E0,-5.701643372E-1,2.855820910E0
4.883811667E0,4.942721558E-1,3.122357025E0,3.502716064E-2,3.161430888E0
4.893771667E0,8.466394043E-1,3.794758759E0,5.821394348E-1,3.931396525E0
4.903730667E0,1.492546234E0,4.418212280E0,1.101259918E0,4.791770802E0
4.913689667E0,2.181413727E0,4.732558594E0,1.566342773E0,5.441425032E0
4.923649667E0,2.697839813E0,4.758903809E0,1.906285858E0,5.793050223E0
4.933608667E0,2.881208496E0,4.431684265E0,1.910926208E0,5.620749665E0
4.943567667E0,3.039279785E0,4.102818146E0,2.065704346E0,5.507946332E0
4.953527667E0,3.218457184E0,3.891757050E0,2.360142059E0,5.574451553E0
4.963486667E0,3.813619537E0,3.861519928E0,2.434836731E0,5.948399788E0
4.973445667E0,4.626279602E0,4.001927948E0,2.235750732E0,6.512792918E0
4.983405667E0,5.559588776E0,4.237987061E0,2.085463257E0,7.295116084E0
4.993364667E0,6.407874756E0,4.581971741E0,1.921254730E0,8.108424240E0
5.003324667E0,6.634204102E0,5.030888214E0,1.840722198E0,8.527060367E0
5.013283667E0,6.330335999E0,5.384752350E0,1.994153137E0,8.546657736E0
5.023242667E0,5.368885345E0,5.710924072E0,2.336940308E0,8.179295423E0
5.033202667E0,4.346960449E0,6.262227631E0,2.770887909E0,8.111065272E0
5.043161667E0,3.943848724E0,6.876849518E0,3.132086792E0,8.523788461E0
5.053120667E0,4.401297455E0,7.276967468E0,3.501518555E0,9.197081440E0
5.063080667E0,5.207520905E0,7.306156769E0,3.901935883E0,9.783828715E0
5.073039667E0,5.798791351E0,7.177424469E0,4.290228424E0,1.017582739E1
5.082998667E0,5.958209839E0,7.024741974E0,4.601730652E0,1.029675625E1
5.092958667E0,5.625751190E0,7.001390533E0,5.000501404E0,1.027976460E1
5.102917667E0,5.475014648E0,7.039561157E0,5.303321686E0,1.037576154E1
5.112876667E0,5.828579407E0,6.945556641E0,5.505850525E0,1.060789729E1
5.122836667E0,6.268065491E0,6.729256439E0,5.583239594E0,1.075844327E1
5.132795667E0,6.438411255E0,6.454577637E0,5.424569550E0,1.060851859E1
5.142755667E0,6.499334564E0,6.294859772E0,5.169499969E0,1.042066885E1
5.152714667E0,6.576124878E0,6.284531250E0,4.982389069E0,1.037135248E1
5.162673667E0,6.634952545E0,6.464307404E0,4.896018677E0,1.047763639E1
5.172633667E0,6.674320679E0,6.629713440E0,5.006189575E0,1.065652809E1
5.182592667E0,6.952442322E0,6.773713989E0,5.443130951E0,1.112867153E1
5.192551667E0,7.492070160E0,6.891968079E0,6.047424316E0,1.184067904E1
5.202511667E0,7.835755463E0,6.913523254E0,6.753056946E0,1.244185057E1
5.212470667E0,7.815697174E0,7.119794312E0,7.419321442E0,1.291599489E1
5.222429667E0,7.426955566E0,7.614964600E0,7.943531342E0,1.327580676E1
5.232389667E0,7.210056610E0,7.939789124E0,8.554111633E0,1.371852738E1
5.242348667E0,7.195985870E0,8.118367767E0,9.258995819E0,1.426250719E1
5.252308667E0,7.244634705E0,8.332572327E0,9.882898407E0,1.481850784E1
5.262267667E0,7.013964386E0,8.457712097E0,1.045156586E1,1.516455800E1
5.272226667E0,6.591842194E0,8.664282532E0,1.094943054E1,1.544060247E1
5.282186667E0,5.897436218E0,8.969348145E0,1.139894577E1,1.565774328E1
5.292145667E0,4.622387695E0,9.499844971E0,1.202659058E1,1.600788566E1
5.302104667E0,3.624862061E0,1.003243744E1,1.239557327E1,1.635358256E1
5.312064667E0,3.427123260E0,1.035860916E1,1.285227356E1,1.685903002E1
5.322023667E0,3.229234772E0,1.020727386E1,1.341540253E1,1.716360749E1
5.331982667E0,2.877915344E0,9.805060272E0,1.402313873E1,1.735136950E1
5.341942667E0,2.122286682E0,9.776320038E0,1.462324081E1,1.771777938E1
5.351901667E0,1.072369995E0,1.005578888E1,1.512050674E1,1.819061823E1
5.361860667E0,2.047741699E-1,1.008512787E1,1.533845352E1,1.835810156E1
5.371820667E0,-3.359014893E-1,9.714348907E0,1.503219040E1,1.790106569E1
5.381779667E0,-4.858895874E-1,8.914562073E0,1.430859512E1,1.686539060E1
5.391738667E0,-5.246589661E-1,8.069569244E0,1.355102051E1,1.578047438E1
5.401698667E0,-9.385482788E-1,7.360942841E0,1.269375320E1,1.470359557E1
5.411657667E0,-1.496288452E0,6.814728699E0,1.186357956E1,1.376313650E1
5.421617667E0,-1.727258148E0,6.593039703E0,1.114627121E1,1.306487486E1
5.431576667E0,-1.636397095E0,6.535110168E0,1.075663147E1,1.269214643E1
5.441535667E0,-1.535506897E0,6.440806274E0,1.035576508E1,1.229160841E1
5.451495667E0,-1.335522766E0,6.290069733E0,9.936037903E0,1.183526288E1
5.461454667E0,-1.067430267E0,6.025120697E0,9.629176025E0,1.140887890E1
5.471413667E0,-1.156495056E0,5.736371155E0,9.533824310E0,1.118647580E1
5.481373667E0,-1.800006866E0,5.753136292E0,9.387877808E0,1.115665056E1
5.491332667E0,-2.288890228E0,5.909710693E0,9.280850372E0,1.123823307E1
5.501291667E0,-2.117945709E0,6.037993927E0,9.231153717E0,1.123197506E1
5.511251667E0,-1.792821808E0,6.096222839E0,8.955726471E0,1.098103727E1
5.521210667E0,-1.543141022E0,5.966143341E0,8.374934235E0,1.039786872E1
5.531169667E0,-1.461710358E0,5.830974426E0,7.587721252E0,9.680411858E0
5.541129667E0,-1.364712067E0,5.820945282E0,7.130122833E0,9.305078969E0
5.551088667E0,-1.354084167E0,5.857469330E0,7.012467499E0,9.236784684E0
5.561047667E0,-1.258283386E0,5.963299255E0,6.948849792E0,9.242874473E0
5.571007667E0,-9.297166443E-1,6.099366302E0,6.749464417E0,9.144501749E0
5.580966667E0,-5.230123901E-1,6.208938446E0,6.463708649E0,8.977972381E0
5.590926667E0,-1.627116394E-1,6.275998993E0,6.303990784E0,8.896906105E0
5.600885667E0,-1.930984497E-2,6.214776306E0,6.105503540E0,8.712117474E0
5.610844667E0,-1.597178650E-1,6.117628326E0,5.867199097E0,8.477907252E0
5.620804667E0,-3.860472107E-1,6.218069458E0,5.645659790E0,8.407549863E0
5.630763667E0,-3.626957703E-1,6.398594055E0,5.417833557E0,8.392048293E0
5.640722667E0,-1.498384094E-1,6.519692230E0,5.252128143E0,8.373391688E0
5.650680875E0,7.229965210E-2,6.573580170E0,5.127138062E0,8.336949573E0
5.660639875E0,2.447410583E-1,6.607858887E0,5.063220978E0,8.328259357E0
5.670598875E0,2.674937439E-1,6.621779938E0,5.004393311E0,8.304425016E0
5.680558875E0,1.652563477E-1,6.669380951E0,4.938530273E0,8.300423675E0
5.690517875E0,5.523513794E-2,6.732699280E0,4.948260040E0,8.355690752E0
5.700476875E0,-1.465452576E-1,6.832841034E0,5.090913391E0,8.522123636E0
5.710436875E0,-2.300715637E-1,6.849306793E0,5.224136353E0,8.617281306E0
5.720395875E0,-1.550775146E-1,6.875801697E0,5.227130127E0,8.638494508E0
5.730354875E0,1.264869690E-1,6.877298584E0,5.242398376E0,8.648466656E0
5.740314875E0,4.450245667E-1,6.898404694E0,5.152435455E0,8.621695037E0
5.750273875E0,7.908055115E-1,6.977889404E0,5.141957245E0,8.703794472E0
5.760232875E0,9.798623657E-1,7.112908630E0,5.165907440E0,8.845349011E0
5.770192875E0,9.321116638E-1,7.199279022E0,5.171745300E0,8.913214911E0
5.780151875E0,7.312294006E-1,7.197632446E0,5.196294250E0,8.907417314E0
5.790110875E0,6.327342224E-1,7.088359680E0,5.187761993E0,8.806705971E0
5.800070875E0,6.358776855E-1,6.976542206E0,5.221741333E0,8.737451810E0
5.810029875E0,6.626719666E-1,7.009473724E0,5.184468842E0,8.743601843E0
5.819988875E0,8.333171082E-1,7.207811279E0,5.050347748E0,8.840417027E0
5.829948875E0,1.040635986E0,7.516170044E0,5.002147980E0,9.088301260E0
5.839907875E0,1.333277435E0,7.786358185E0,5.146298218E0,9.428116877E0
5.849866875E0,1.531465302E0,7.907606049E0,5.343138885E0,9.665648066E0
5.859826875E0,1.634750519E0,7.892188110E0,5.627248077E0,9.829799762E0
5.869785875E0,1.619332581E0,7.795189819E0,5.716462555E0,9.801283919E0
5.879745875E0,1.506766663E0,7.610623627E0,5.736670532E0,9.648902868E0
5.889704875E0,1.288819885E0,7.335046692E0,5.665867767E0,9.357671945E0
5.899663875E0,1.211131439E0,7.203769684E0,5.552403717E0,9.175528544E0
5.909623875E0,1.330433350E0,7.187303925E0,5.486540680E0,9.139448519E0
5.919582875E0,1.397493896E0,7.323670349E0,5.390141144E0,9.200149897E0
5.929541875E0,1.518741760E0,7.546556854E0,5.240751801E0,9.312495709E0
5.939501875E0,1.738185425E0,7.691605225E0,5.179978180E0,9.434736533E0
5.949460875E0,1.820813599E0,7.774233398E0,5.112169189E0,9.480946204E0
5.959419875E0,1.883084106E0,7.913443909E0,5.337750092E0,9.729346139E0
5.969379875E0,1.620829468E0,8.014932861E0,5.603746948E0,9.913032674E0
5.979338875E0,1.433568878E0,8.006550293E0,5.847290497E0,1.001752332E1
5.989297875E0,1.414109344E0,7.854316864E0,5.216202850E0,9.534084687E0
5.999257875E0,1.370549927E0,7.720345459E0,5.180427246E0,9.397817170E0
6.009216875E0,1.478176117E0,7.634873199E0,5.546715546E0,9.552085989E0
6.019175875E0,1.638941803E0,7.431745605E0,5.380710754E0,9.320355208E0
6.029135875E0,1.753453674E0,7.309000854E0,5.427114258E0,9.270904079E0
6.039094875E0,1.663790131E0,7.302713928E0,5.409900055E0,9.239309873E0
6.049053875E0,1.678459625E0,7.479645996E0,5.923631744E0,9.687710977E0
6.059013875E0,1.855541382E0,7.816744995E0,6.703659668E0,1.046344059E1
6.068972875E0,1.677561493E0,8.130642242E0,7.223528595E0,1.100458637E1
6.078931875E0,1.557960205E0,8.270750885E0,7.336244202E0,1.116481255E1