"Time (s)","Acceleration x (m/s^2)","Acceleration y (m/s^2)","Acceleration z (m/s^2)","Absolute acceleration (m/s^2)"
-2.980833291E-3,-2.342329102E0,6.286327515E0,6.215824127E0,9.145539285E0
6.977166689E-3,-2.373015289E0,6.397546234E0,5.691763916E0,8.885717521E0
1.693616668E-2,-2.822829895E0,6.366860046E0,5.704637146E0,9.002675182E0
2.689516667E-2,-3.517984314E0,6.145919495E0,6.174060974E0,9.395082170E0
3.685316670E-2,-3.974983978E0,5.904920654E0,6.869065704E0,9.892049798E0
4.681216669E-2,-4.032464447E0,5.604345703E0,7.425907745E0,1.013970247E1
5.677016667E-2,-3.903432770E0,5.355862427E0,7.790848846E0,1.022836133E1
6.672916672E-2,-3.585942993E0,5.079686737E0,7.992180176E0,1.012606283E1
7.668816671E-2,-3.275338898E0,4.852010193E0,8.095166016E0,9.990073104E0
8.664616669E-2,-3.079396362E0,4.929099884E0,7.928861847E0,9.830847258E0
9.660516668E-2,-2.910996552E0,4.796475677E0,7.285948792E0,9.195930058E0
1.065641667E-1,-2.978206787E0,4.539011078E0,6.866670685E0,8.753485222E0
1.165221667E-1,-3.406017151E0,4.667743378E0,6.881340179E0,8.985634298E0
1.264811667E-1,-3.858226776E0,4.954546967E0,6.847061462E0,9.290624315E0
1.364401667E-1,-3.872596893E0,5.257217560E0,6.945406952E0,9.532786628E0
1.463981667E-1,-3.652105408E0,5.406906281E0,7.303013306E0,9.793187059E0
1.563571667E-1,-3.566633148E0,5.198389893E0,7.971523132E0,1.016313488E1
1.663151667E-1,-3.492088165E0,4.791236572E0,8.846453705E0,1.064943054E1
1.762741667E-1,-3.258573761E0,4.498894501E0,9.166937256E0,1.071872629E1
1.862331667E-1,-3.327729950E0,4.459376678E0,9.033265228E0,1.060941599E1
1.961911667E-1,-3.897894287E0,4.602329407E0,8.848100281E0,1.070812282E1
2.061501667E-1,-4.827610931E0,4.646487579E0,8.754395142E0,1.102429628E1
2.161091667E-1,-5.285059662E0,4.712051239E0,8.517138519E0,1.107596186E1
2.260671667E-1,-5.100343781E0,5.047503662E0,8.246800690E0,1.093162941E1
2.360261667E-1,-4.904101868E0,5.453908539E0,7.987090759E0,1.084384398E1
2.459851667E-1,-4.820276184E0,5.934559021E0,7.676935730E0,1.083463869E1
2.559431667E-1,-4.912035370E0,6.544989624E0,7.357500000E0,1.100444396E1
2.659021667E-1,-5.146298218E0,6.831493835E0,4.288432159E0,9.567880839E0
2.758601667E-1,-4.657863922E0,7.920479279E0,3.313210144E0,9.767653238E0
2.858191667E-1,-3.538341980E0,8.525371399E0,6.780749359E0,1.145340051E1
2.957781667E-1,-4.247866516E0,7.837701416E0,6.120472412E0,1.081360791E1
3.057361667E-1,-5.711073761E0,7.975415039E0,6.274502106E0,1.164444010E1
3.156951667E-1,-6.568640442E0,9.153465271E0,6.209986267E0,1.286455958E1
3.256541667E-1,-6.202352142E0,1.031564850E1,5.758974152E0,1.334344631E1
3.356121667E-1,-4.851112061E0,1.150447632E1,4.208049316E0,1.317550540E1
3.455711667E-1,-4.009562073E0,1.167796555E1,2.920277252E0,1.268776917E1
3.555301667E-1,-5.454207916E0,1.112636261E1,3.034340057E0,1.275741151E1
3.654881667E-1,-7.767198029E0,1.079779587E1,4.914729767E0,1.418013856E1
3.754471667E-1,-9.066795502E0,1.081171692E1,6.525230713E0,1.554601683E1
3.854051667E-1,-8.119116211E0,1.102068237E1,7.226971436E0,1.547916678E1
3.953641667E-1,-5.711373138E0,1.132934052E1,7.936495972E0,1.496535024E1
4.053231667E-1,-3.595822449E0,1.163530426E1,8.905580750E0,1.508706773E1
4.152811667E-1,-2.917732544E0,1.196671509E1,9.856553192E0,1.577552136E1
4.252401667E-1,-3.094365234E0,1.261007721E1,1.077683945E1,1.687392699E1
4.351991667E-1,-2.995720367E0,1.295720535E1,1.146166534E1,1.755657380E1
4.451571667E-1,-2.363734589E0,1.317754715E1,1.217029175E1,1.809284365E1
4.551161667E-1,-1.417552185E0,1.383243530E1,1.211595474E1,1.844294120E1
4.650751667E-1,-6.674620056E-1,1.416025360E1,1.134984787E1,1.815977242E1
4.750331667E-1,-8.547225952E-2,1.407942169E1,1.073807007E1,1.770716153E1
4.849921667E-1,1.398092651E-1,1.360386063E1,1.085916824E1,1.740707056E1
4.949501667E-1,3.311114502E-1,1.272399033E1,1.061203217E1,1.657180712E1
5.049091667E-1,1.403780823E0,1.209080704E1,9.992769928E0,1.574844965E1
5.148681667E-1,2.790946198E0,1.143352386E1,9.103469238E0,1.487911290E1
5.248261667E-1,3.332669678E0,1.112291977E1,8.041128387E0,1.412394340E1
5.347851667E-1,3.121758270E0,1.089988358E1,7.381899261E0,1.352942251E1
5.447441667E-1,2.719544678E0,1.051353699E1,7.173831940E0,1.301515455E1
5.547021667E-1,2.672841797E0,9.950707397E0,6.849306793E0,1.237229423E1
5.646611667E-1,3.224295044E0,9.514664154E0,6.385122070E0,1.190355814E1
5.746201667E-1,3.744014282E0,9.338330841E0,5.718258820E0,1.157240467E1
5.845781667E-1,4.164489899E0,9.000184021E0,5.211562500E0,1.120297604E1
5.945371667E-1,4.138593750E0,8.295748901E0,5.113666077E0,1.058758654E1
6.044951667E-1,4.051624603E0,7.563321991E0,4.951553192E0,9.906431269E0
6.144544584E-1,4.233795776E0,6.876999207E0,4.334835663E0,9.165639366E0
6.244134583E-1,4.038302307E0,6.299500122E0,3.356021118E0,8.200881968E0
6.343714584E-1,3.755240936E0,5.746250610E0,2.685415649E0,7.371071006E0
6.443304584E-1,3.446882172E0,5.169649658E0,2.071841583E0,6.549717692E0
6.542894584E-1,3.346890106E0,4.580474854E0,1.548978882E0,5.880625719E0
6.642474583E-1,3.400328979E0,4.004472656E0,1.112636261E0,5.369916002E0
6.742064584E-1,3.566184082E0,3.594924316E0,5.803431702E-1,5.096856673E0
6.841654584E-1,3.725752258E0,3.320844269E0,5.673202515E-2,4.991237829E0
6.941234584E-1,3.668271790E0,3.052153015E0,-3.526666260E-1,4.785000491E0
7.040824583E-1,3.360362091E0,2.608475647E0,-3.897894287E-1,4.271781172E0
7.140404584E-1,2.864293671E0,2.012714539E0,-3.553610229E-1,3.518732656E0
7.239994584E-1,2.411036224E0,1.576222229E0,-4.697232056E-1,2.918597622E0
7.339584584E-1,2.030527496E0,1.290915527E0,-5.881269836E-1,2.476973589E0
7.439164583E-1,1.604513397E0,1.131047974E0,-7.761360168E-1,2.110952363E0
7.538754584E-1,1.291963348E0,1.151555328E0,-8.797206116E-1,1.941431771E0
7.638344584E-1,1.029109955E0,1.210682373E0,-6.906637573E-1,1.732580599E0
7.737924583E-1,7.137158203E-1,1.595083008E0,-1.683998108E-1,1.755573573E0
7.837514583E-1,5.276527405E-1,2.038460999E0,1.266366577E-1,2.109449573E0
7.937104584E-1,3.311114502E-1,2.065255280E0,2.296224976E-1,2.104195964E0
8.036684584E-1,1.886077881E-1,1.999092865E0,2.932402039E-1,2.029269572E0
8.136274584E-1,6.466552734E-2,1.900298309E0,-7.888595581E-2,1.903033969E0
8.235854583E-1,-9.744735718E-2,1.782493286E0,-5.053491211E-1,1.855304837E0
8.335444584E-1,-3.391946411E-1,1.616039429E0,-8.583151245E-1,1.861005452E0
8.435034584E-1,-5.140310669E-1,1.432221680E0,-1.263971558E0,1.978158481E0
8.534614583E-1,-6.776408386E-1,1.326242065E0,-1.860481110E0,2.383171224E0
8.634204583E-1,-7.336244202E-1,1.244961090E0,-2.397414551E0,2.799237295E0
8.733794584E-1,-7.741900635E-1,1.188977509E0,-2.752027130E0,3.096238217E0
8.833374584E-1,-9.904902649E-1,1.388362885E0,-2.930755463E0,3.390862729E0
8.932964584E-1,-1.220412140E0,1.768272858E0,-2.898273010E0,3.607794497E0
9.032554583E-1,-1.321901093E0,2.071991272E0,-2.692600708E0,3.645636968E0
9.132134584E-1,-1.311572571E0,2.171833649E0,-2.412233734E0,3.500850696E0
9.231724584E-1,-1.409319305E0,2.182012482E0,-2.004930725E0,3.281326955E0
9.331304583E-1,-1.748214569E0,2.274969177E0,-1.542392578E0,3.257409063E0
9.430894583E-1,-2.160157928E0,2.635868683E0,-1.247655487E0,3.629150066E0
9.530484584E-1,-2.863694916E0,3.217109985E0,-9.569599915E-1,4.412065010E0
9.630064584E-1,-3.694916382E0,4.022285614E0,-6.222560120E-1,5.497125719E0
9.729654583E-1,-4.539759521E0,4.907844086E0,-3.585044861E-1,6.695138202E0
9.829244583E-1,-5.422174530E0,5.510041809E0,-1.480421448E-1,7.731911397E0
9.928824584E-1,-6.428382111E0,5.633085938E0,2.326162720E-1,8.550430636E0
1.002841458E0,-7.778424683E0,5.572462006E0,8.048762512E-1,9.602293951E0
1.012800458E0,-9.200617218E0,5.721701660E0,1.722318420E0,1.097067035E1
1.022758458E0,-1.070498886E1,6.286926270E0,2.757864990E0,1.271723428E1
1.032717458E0,-1.200743042E1,7.797584839E0,3.635489960E0,1.477150980E1
1.042675458E0,-1.237416779E1,9.765243073E0,3.924538879E0,1.624444539E1
1.052634458E0,-1.202898560E1,1.119596786E1,4.210294647E0,1.696386666E1
1.062593458E0,-1.196342194E1,1.215652039E1,4.697681122E0,1.769103333E1
1.072551458E0,-1.229049179E1,1.289583298E1,5.278473358E0,1.858012319E1
1.082510458E0,-1.244452148E1,1.370250549E1,5.767057343E0,1.938772091E1
1.092469458E0,-1.219139786E1,1.472832230E1,6.465953979E0,2.018321630E1
1.102427458E0,-1.157168655E1,1.577853836E1,7.075935516E0,2.080709172E1
1.112386458E0,-1.048973648E1,1.680495392E1,7.357500000E0,2.113229410E1
1.122345458E0,-9.114845581E0,1.750160522E1,7.226073303E0,2.101434583E1
1.132303458E0,-8.103997650E0,1.783181854E1,7.133565674E0,2.084553405E1
1.142262458E0,-7.813751221E0,1.789588531E1,7.405999146E0,2.088459343E1
1.152220458E0,-7.978408813E0,1.795037201E1,7.767198029E0,2.112345208E1
1.162179458E0,-8.196056213E0,1.813613571E1,8.274792480E0,2.155381513E1
1.172138458E0,-7.805967407E0,1.847877319E1,8.851992188E0,2.192614767E1
1.182096458E0,-6.255641327E0,1.902064636E1,8.984317017E0,2.194620670E1
1.192055458E0,-3.870052185E0,1.956236984E1,8.851393433E0,2.181767136E1
1.202014458E0,-1.420096893E0,1.988285339E1,8.946595459E0,2.184916714E1
1.211972458E0,2.200424194E-2,1.987881180E1,9.293873291E0,2.194410453E1
1.221931458E0,-3.472778320E-2,1.950578751E1,9.821076965E0,2.183873863E1
1.231890458E0,-7.114704895E-1,1.896017212E1,1.001776794E1,2.145576826E1
1.241848458E0,-1.329385529E0,1.821876389E1,1.010832962E1,2.087747473E1
1.251807458E0,-1.317709808E0,1.748244507E1,1.012719040E1,2.024678320E1
1.261765458E0,-5.177732849E-1,1.729742981E1,9.671837311E0,1.982457072E1
1.271724458E0,3.697311401E-1,1.762704437E1,9.436676331E0,1.999750621E1
1.281683458E0,1.234333191E0,1.796893341E1,9.856403503E0,2.053180061E1
1.291641458E0,2.060315552E0,1.791324921E1,1.090766739E1,2.107383698E1
1.301600458E0,2.716251526E0,1.750849091E1,1.190639053E1,2.134683610E1
1.311559458E0,3.333717499E0,1.687276291E1,1.270572830E1,2.138315534E1
1.321517458E0,4.143383789E0,1.630334702E1,1.330702789E1,2.144863036E1
1.331476458E0,5.309458923E0,1.533246597E1,1.333606750E1,2.100298939E1
1.341435458E0,6.418802032E0,1.405921371E1,1.302935532E1,2.021451483E1
1.351393458E0,7.250921631E0,1.279269745E1,1.224109451E1,1.913304386E1
1.361352458E0,7.605833588E0,1.168185745E1,1.095796280E1,1.773108702E1
1.371311458E0,7.640561371E0,1.071756271E1,9.593550110E0,1.628743480E1
1.381269458E0,7.600893860E0,9.861043854E0,8.404422913E0,1.502158773E1
1.391228458E0,7.631430359E0,9.072034607E0,7.404502258E0,1.397738155E1
1.401186458E0,7.852670288E0,8.628506927E0,6.309529266E0,1.326369941E1
1.411145458E0,8.225544891E0,8.340505829E0,5.200784912E0,1.281685570E1
1.421104458E0,8.478069763E0,7.964038696E0,4.516857147E0,1.247820411E1
1.431062458E0,8.365054779E0,7.373367004E0,4.099524994E0,1.188052135E1
1.441021458E0,8.103698273E0,6.703060913E0,3.670666809E0,1.113888442E1
1.450980458E0,7.919581146E0,6.136189728E0,3.137924652E0,1.049853137E1
1.460938458E0,7.621850281E0,5.511089630E0,2.546953583E0,9.744315428E0
1.470897458E0,7.178771667E0,4.892575836E0,2.065105591E0,8.929542097E0
1.480856458E0,6.781946869E0,4.372706909E0,1.714235229E0,8.249483103E0
1.490814458E0,6.396947479E0,3.957470398E0,1.507365417E0,7.671679054E0
1.500773458E0,6.071374512E0,3.603456573E0,1.347647552E0,7.187672896E0
1.510731458E0,5.901777191E0,3.421734467E0,1.191073151E0,6.925163971E0
1.520690458E0,5.603896637E0,3.383713531E0,1.320853271E0,6.678160536E0
1.530649458E0,5.208868103E0,3.311713257E0,1.640438690E0,6.386766843E0
1.540607458E0,4.763095093E0,3.221450958E0,1.762884064E0,6.014364585E0
1.550566458E0,4.276606750E0,3.143612823E0,1.921105042E0,5.644671068E0
1.560525458E0,3.790866852E0,3.065625000E0,2.035616913E0,5.283224805E0
1.570483458E0,3.303031311E0,2.919379120E0,1.834584961E0,4.774776672E0
1.580442458E0,2.869083710E0,2.872376862E0,1.650767212E0,4.382604540E0
1.590401458E0,2.523602142E0,2.821931763E0,1.572480011E0,4.099336535E0
1.600359458E0,2.242786102E0,2.785258026E0,1.384770355E0,3.834754322E0
1.610318042E0,2.048639832E0,2.803370361E0,1.037342834E0,3.623795068E0
1.620276042E0,2.004930725E0,2.833457794E0,7.307803345E-1,3.547149585E0
1.630235042E0,2.011816406E0,2.839445343E0,5.239105225E-1,3.519138722E0
1.640194042E0,1.910028076E0,2.764151917E0,3.360511780E-1,3.376636413E0
1.650152042E0,1.664538574E0,2.661315765E0,2.288740540E-1,3.147328010E0
1.660111042E0,1.206191711E0,2.433040466E0,2.679428101E-1,2.728805179E0
1.670070042E0,6.396199036E-1,2.160157928E0,2.471360779E-1,2.266378640E0
1.680028042E0,5.568420410E-2,1.957329712E0,-2.305206299E-2,1.958257319E0
1.689987042E0,-4.888833618E-1,1.876497803E0,-3.655398560E-1,1.973289216E0
1.699946042E0,-8.300239563E-1,1.808838501E0,-7.911048889E-1,2.141654369E0
1.709904042E0,-9.888436890E-1,1.774859161E0,-1.266665955E0,2.394238819E0
1.719863042E0,-1.034648438E0,1.842368774E0,-1.791175232E0,2.770041300E0
1.729821042E0,-1.199605408E0,1.914518738E0,-2.237097931E0,3.179472013E0
1.739780042E0,-1.575623474E0,1.852547607E0,-2.458936615E0,3.458452146E0
1.749739042E0,-2.129771118E0,1.713786163E0,-2.471959534E0,3.685589772E0
1.759697042E0,-2.861599274E0,1.616787872E0,-2.344125366E0,4.037038167E0
1.769656042E0,-3.896547089E0,1.658401337E0,-1.838177490E0,4.616521493E0
1.779615042E0,-4.850962372E0,2.003284149E0,-1.408570862E0,5.434064334E0
1.789573042E0,-5.322332153E0,2.540666656E0,-1.640139313E0,6.121459268E0
1.799532042E0,-5.433401184E0,3.146606598E0,-1.682201843E0,6.500214193E0
1.809491042E0,-5.306165771E0,3.666176147E0,-1.286873932E0,6.576647113E0
1.819449042E0,-5.004093933E0,3.951931915E0,-8.888516235E-1,6.438072628E0
1.829408042E0,-4.831652527E0,3.986360321E0,-5.492079163E-1,6.287890273E0
1.839366042E0,-5.305117950E0,4.037703552E0,-2.317181396E-1,6.670908464E0
1.849325042E0,-6.088888092E0,4.373455353E0,-7.229965210E-2,7.497125927E0
1.859284042E0,-7.005731506E0,4.924908600E0,-2.564167786E-1,8.567423663E0
1.869242042E0,-8.040829010E0,5.451962585E0,-1.034349060E-1,9.715427216E0
1.879201042E0,-9.033414917E0,5.835614777E0,6.774911499E-1,1.077571247E1
1.889160042E0,-9.826465759E0,6.170019379E0,1.797312469E0,1.174133300E1
1.899118042E0,-1.057820251E1,6.687044220E0,2.982996826E0,1.286519331E1
1.909077042E0,-1.110720245E1,7.550299072E0,3.549418945E0,1.389155633E1
1.919036042E0,-1.107876160E1,8.954229584E0,3.978726196E0,1.479011319E1
1.928994042E0,-1.083761307E1,1.056098831E1,4.530029755E0,1.579586974E1
1.938953042E0,-1.034019745E1,1.225381805E1,5.170248413E0,1.684657855E1
1.948911042E0,-9.430239716E0,1.368663849E1,5.825735321E0,1.761228793E1
1.958870042E0,-8.709787903E0,1.443104050E1,6.579118652E0,1.809420176E1
1.968829042E0,-8.606802063E0,1.473341171E1,7.451354828E0,1.861916086E1
1.978787042E0,-9.324110413E0,1.498503845E1,7.983498230E0,1.937076809E1
1.988746042E0,-1.024978546E1,1.569336548E1,8.198451233E0,2.045860271E1
1.998705042E0,-1.064690964E1,1.663864975E1,8.768316193E0,2.161214286E1
2.008663042E0,-9.689500580E0,1.745310608E1,9.932295685E0,2.229681212E1
2.018622042E0,-7.667804718E0,1.827938782E1,1.110720245E1,2.272226209E1
2.028581042E0,-5.515729980E0,1.921599014E1,1.186717209E1,2.324881347E1
2.038539042E0,-4.096231842E0,1.985860382E1,1.242161911E1,2.377897984E1
2.048498042E0,-3.741918640E0,1.996877472E1,1.289253983E1,2.406182666E1
2.058456042E0,-4.455335083E0,1.953737183E1,1.324311081E1,2.401955230E1
2.068415042E0,-5.364993439E0,1.856918518E1,1.382839371E1,2.376598968E1
2.078374042E0,-5.074297943E0,1.744038254E1,1.431712738E1,2.312780965E1
2.088332042E0,-2.937042389E0,1.645318542E1,1.446457077E1,2.210333315E1
2.098291042E0,9.762698364E-1,1.610141693E1,1.413046555E1,2.144478460E1
2.108250042E0,5.015170898E0,1.626981674E1,1.365116226E1,2.182230756E1
2.118208042E0,7.426656189E0,1.656724823E1,1.383123779E1,2.282393645E1
2.128167042E0,7.957153015E0,1.690704163E1,1.433089874E1,2.354865175E1
2.138126042E0,7.546107788E0,1.722034012E1,1.486274277E1,2.396633011E1
2.148084042E0,7.420219574E0,1.719504272E1,1.546119827E1,2.428534136E1
2.158043042E0,7.789351959E0,1.675391006E1,1.594379471E1,2.440434584E1
2.168002042E0,8.684041443E0,1.623254425E1,1.631232834E1,2.459675028E1
2.177960042E0,9.799671478E0,1.562361053E1,1.613105530E1,2.450187161E1
2.187919042E0,1.053419403E1,1.512305145E1,1.508503052E1,2.381667640E1
2.197877042E0,1.032672546E1,1.463746124E1,1.366777771E1,2.253230299E1
2.207836042E0,9.523944855E0,1.384456009E1,1.291903473E1,2.119619843E1
2.217795042E0,8.857380981E0,1.280317566E1,1.225666214E1,1.981414322E1
2.227753042E0,8.715625763E0,1.181508041E1,1.136661301E1,1.856766407E1
2.237712042E0,8.896000671E0,1.091081085E1,1.044602737E1,1.753009154E1
2.247671042E0,8.661438446E0,1.012090347E1,9.554481354E0,1.639333148E1
2.257629042E0,7.937244415E0,9.479936371E0,8.743168488E0,1.514305246E1
2.267588042E0,6.984775085E0,8.826694794E0,8.080945587E0,1.385638140E1
2.277546042E0,6.104006653E0,8.099956055E0,7.493267670E0,1.261020403E1
2.287505042E0,5.486241302E0,7.390581207E0,6.910828857E0,1.150995611E1
2.297464042E0,5.067412262E0,6.730753326E0,6.364764404E0,1.055897406E1
2.307422042E0,4.818629608E0,6.127507782E0,5.838458862E0,9.739257919E0
2.317381042E0,4.606969757E0,5.427413635E0,5.394332428E0,8.931954515E0
2.327340042E0,4.390070801E0,4.853656769E0,4.577032013E0,7.986233637E0
2.337298042E0,4.119732971E0,4.461921387E0,3.789968719E0,7.158547696E0
2.347257042E0,3.795507202E0,4.060755615E0,3.180885315E0,6.404189447E0
2.357216042E0,3.542682953E0,3.582649841E0,2.587668915E0,5.664098587E0
2.367174042E0,3.489244080E0,3.137325897E0,1.976340179E0,5.091518294E0
2.377133042E0,3.618275757E0,2.791844330E0,1.279539185E0,4.745896621E0
2.387092042E0,3.634292450E0,2.446961517E0,7.247927856E-1,4.440836279E0
2.397050042E0,3.482807465E0,2.123633881E0,3.312611389E-1,4.092615623E0
2.407009042E0,3.264710999E0,1.846859436E0,5.209167480E-2,3.751258619E0
2.416967042E0,3.096460876E0,1.571881256E0,-1.196012878E-1,3.474648919E0
2.426926042E0,3.023861847E0,1.315165100E0,-2.944377136E-1,3.310603159E0
2.436885042E0,3.155138855E0,1.199755096E0,-5.758525085E-1,3.424313011E0
2.446843042E0,3.339405670E0,1.150507507E0,-8.915460205E-1,3.642821991E0
2.456802042E0,3.471281433E0,1.041534119E0,-1.093775482E0,3.785621866E0
2.466761042E0,3.457210693E0,9.771679688E-1,-1.165476379E0,3.776969448E0
2.476719042E0,3.332969055E0,9.304650879E-1,-1.133892059E0,3.641450151E0
2.486678042E0,3.113375702E0,9.083111572E-1,-1.132694550E0,3.435277916E0
2.496637042E0,2.842588806E0,8.782237244E-1,-1.134640503E0,3.184179188E0
2.506595042E0,2.511028290E0,8.602610779E-1,-1.125210114E0,2.882951611E0
2.516554042E0,2.098635864E0,7.584727478E-1,-1.188827820E0,2.528411554E0
2.526512042E0,1.444047089E0,6.743476868E-1,-1.195114746E0,1.992063265E0
2.536471042E0,5.536985779E-1,8.428971863E-1,-1.314716034E0,1.656965911E0
2.546430042E0,-3.511697388E-1,1.131646729E0,-1.658401337E0,2.038195157E0
2.556388042E0,-1.193318481E0,1.489851837E0,-2.084116058E0,2.826164758E0
2.566347042E0,-2.115999756E0,1.799108734E0,-2.412084045E0,3.678640598E0
2.576306042E0,-3.032094727E0,2.030377808E0,-2.549947357E0,4.451770883E0
2.586264042E0,-3.636388092E0,2.187550964E0,-2.505190430E0,4.927948525E0
2.596223042E0,-4.084855499E0,2.125280457E0,-2.283202057E0,5.139637448E0
2.606182042E0,-4.493655396E0,2.018103333E0,-1.842668152E0,5.259382644E0
2.616139958E0,-4.841232605E0,2.061063995E0,-1.607507172E0,5.501781278E0
2.626098958E0,-5.173840942E0,2.131866760E0,-1.721719666E0,5.854724980E0
2.636056958E0,-6.048771515E0,2.174827423E0,-1.921703796E0,6.708983279E0
2.646015958E0,-7.105873260E0,2.380350037E0,-1.669029236E0,7.677575117E0
2.655974958E0,-7.971672821E0,2.500250702E0,-1.265169067E0,8.449820939E0
2.665932958E0,-8.856782227E0,2.607727203E0,-9.310638428E-1,9.279531909E0
2.675891958E0,-9.601034546E0,2.752027130E0,-6.884184265E-1,1.001136542E1
2.685850958E0,-9.944570160E0,2.913241882E0,-3.176394653E-1,1.036736942E1
2.695808958E0,-1.029873367E1,3.144361267E0,-2.766247559E-1,1.077160361E1
2.705767958E0,-1.063897614E1,3.595223694E0,-2.083666992E-1,1.123195723E1
2.715726958E0,-1.102277802E1,4.254752197E0,3.240760803E-1,1.181988057E1
2.725684958E0,-1.148726212E1,5.066963196E0,1.067280579E0,1.260041248E1
2.735643958E0,-1.187765030E1,5.972879333E0,2.115550690E0,1.346214763E1
2.745601958E0,-1.185220322E1,6.876999207E0,3.494333496E0,1.414136506E1
2.755560958E0,-1.145298340E1,7.553891602E0,4.372257843E0,1.439960922E1
2.765519958E0,-1.090691895E1,8.185578003E0,4.545298004E0,1.437443223E1
2.775477958E0,-1.080992065E1,8.860973511E0,4.221521301E0,1.460111223E1
2.785436958E0,-1.120494919E1,9.768087158E0,4.131857758E0,1.542850160E1
2.795395958E0,-1.160491745E1,1.094149704E1,4.784799957E0,1.665187008E1
2.805353958E0,-1.169877228E1,1.180295563E1,5.613327026E0,1.754082309E1
2.815312958E0,-1.111543533E1,1.247610580E1,6.941814423E0,1.809405721E1
2.825270958E0,-1.020442978E1,1.315674042E1,7.968379669E0,1.845874536E1
2.835229958E0,-9.473649445E0,1.427701080E1,8.893306274E0,1.930476542E1
2.845188958E0,-9.124725037E0,1.623883118E1,1.009815079E1,2.118803658E1
2.855146958E0,-8.622818756E0,1.806114166E1,1.181792450E1,2.324265865E1
2.865105958E0,-7.592361603E0,1.928739166E1,1.392374542E1,2.497034478E1
2.875064958E0,-6.327940979E0,1.994482452E1,1.585263428E1,2.625156902E1
2.885022958E0,-5.217100983E0,2.032653076E1,1.763812134E1,2.741330552E1
2.894981958E0,-4.011358337E0,2.045690964E1,1.836441101E1,2.778178791E1
2.904940958E0,-2.855761414E0,2.025482986E1,1.822460175E1,2.739616059E1
2.914898958E0,-1.956581268E0,1.956611206E1,1.791055481E1,2.659791204E1
2.924857958E0,-1.160985718E0,1.843102249E1,1.790935730E1,2.572538740E1
2.934816958E0,2.734812927E-1,1.742720993E1,1.766431686E1,2.481552998E1
2.944774958E0,2.441872101E0,1.686453003E1,1.702739136E1,2.408956556E1
2.954733958E0,4.675227814E0,1.660676605E1,1.652638321E1,2.389066294E1
2.964691958E0,6.585106201E0,1.660556854E1,1.576746140E1,2.382690431E1
2.974650958E0,7.279961243E0,1.659703629E1,1.504192017E1,2.355246933E1
2.984609958E0,7.078031158E0,1.624077713E1,1.494656845E1,2.317889720E1
2.994567958E0,7.343279572E0,1.573632614E1,1.468296661E1,2.274082725E1
3.004526958E0,8.152197418E0,1.501961655E1,1.421309372E1,2.222744333E1
3.014485958E0,8.572074280E0,1.402613251E1,1.437236252E1,2.183523883E1
3.024443958E0,8.916657715E0,1.313952621E1,1.433029999E1,2.138951686E1
3.034402958E0,9.321416016E0,1.251861740E1,1.362242203E1,2.071653832E1
3.044361958E0,9.172924805E0,1.212194229E1,1.242386444E1,1.963253529E1
3.054319958E0,8.736432495E0,1.174846893E1,1.149414780E1,1.861362965E1
3.064278958E0,8.423134003E0,1.107157654E1,1.097891922E1,1.772189777E1
3.074236958E0,8.335566101E0,1.026116180E1,1.073582474E1,1.703029761E1
3.084195958E0,8.313861237E0,9.421258392E0,1.060454773E1,1.644192297E1
3.094154958E0,7.986492004E0,8.639733582E0,1.026729904E1,1.561558454E1
3.104112958E0,7.404053192E0,7.984995117E0,1.006731491E1,1.483007013E1
3.114071958E0,6.914122009E0,7.133565674E0,9.814490662E0,1.396485121E1
3.124030958E0,6.248306580E0,6.307433624E0,9.119635620E0,1.272763953E1
3.133988958E0,5.440137177E0,5.535788269E0,8.265062714E0,1.133804683E1
3.143947958E0,4.616400146E0,4.769681396E0,7.563920746E0,1.006349383E1
3.153906958E0,3.363954620E0,3.942651215E0,7.008126526E0,8.716336770E0
3.163864958E0,2.295326843E0,3.086282043E0,6.323150940E0,7.401074245E0
3.173823958E0,2.571203156E0,2.531835022E0,5.510191498E0,6.586614046E0
3.183781958E0,2.892584839E0,2.361040192E0,4.656516724E0,5.968643551E0
3.193740958E0,3.249742126E0,2.439626770E0,3.709136810E0,5.501845013E0
3.203699958E0,3.796255646E0,2.437680817E0,3.031196594E0,5.435255052E0
3.213657958E0,3.875141602E0,2.285896454E0,2.572101288E0,5.182446340E0
3.223616958E0,3.541036377E0,2.116299133E0,2.364483032E0,4.754833399E0
3.233575958E0,2.619851990E0,2.056273956E0,2.245181122E0,4.016556398E0
3.243533958E0,2.081421661E0,2.092199249E0,2.172731781E0,3.664747907E0
3.253492958E0,2.051184540E0,2.014660492E0,2.098486176E0,3.559474560E0
3.263451958E0,2.023641815E0,2.013762360E0,1.759740601E0,3.353662478E0
3.273409958E0,1.850002899E0,2.108964386E0,1.506317596E0,3.184216420E0
3.283368958E0,1.706002350E0,2.223027191E0,1.375040588E0,3.121382791E0
3.293326958E0,1.676663361E0,2.202220459E0,1.212628326E0,3.021827664E0
3.303285958E0,1.511556702E0,2.075434113E0,9.840536499E-1,2.749653070E0
3.313244958E0,1.404080200E0,1.852098541E0,6.863227844E-1,2.423375575E0
3.323202958E0,1.301244049E0,1.614841919E0,3.709286499E-1,2.106783938E0
3.333161958E0,1.122964783E0,1.419647827E0,-3.293151855E-3,1.810099638E0
3.343120958E0,9.156459045E-1,1.240171051E0,-4.556524658E-1,1.607498314E0
3.353078958E0,6.508465576E-1,1.068328400E0,-1.000369720E0,1.601769768E0
3.363037958E0,4.287084961E-1,1.002165985E0,-1.620530090E0,1.953009322E0
3.372996958E0,1.453477478E-1,1.049018555E0,-2.328258362E0,2.557802357E0
3.382954958E0,-1.642085266E-1,1.235381012E0,-2.859054565E0,3.118865770E0
3.392913958E0,-3.474275208E-1,1.492246857E0,-3.161126404E0,3.512865882E0
3.402871958E0,-3.861968994E-1,1.757794647E0,-3.351829834E0,3.804438632E0
3.412830958E0,-5.083428955E-1,2.069147186E0,-3.417543182E0,4.027329634E0
3.422789958E0,-7.414082336E-1,2.403701477E0,-3.367247772E0,4.203073223E0
3.432747958E0,-8.951385498E-1,2.711760864E0,-3.189417572E0,4.281040114E0
3.442706958E0,-1.028211823E0,3.025957489E0,-2.963088226E0,4.358156734E0
3.452665958E0,-1.080602875E0,3.421884155E0,-2.928809509E0,4.631945475E0
3.462623958E0,-1.260977783E0,3.968846741E0,-2.930306396E0,5.092004026E0
3.472582958E0,-1.501377869E0,4.458628235E0,-2.817141724E0,5.483592685E0
3.482541958E0,-1.823358307E0,4.797074432E0,-2.537523193E0,5.724996295E0
3.492499958E0,-2.297422485E0,4.886139221E0,-2.107617188E0,5.796081157E0
3.502458958E0,-3.118914185E0,4.955594788E0,-1.622026978E0,6.075896387E0
3.512416958E0,-4.036506042E0,5.165907440E0,-1.297352142E0,6.683045959E0
3.522375958E0,-4.767136688E0,5.416636047E0,-1.099164276E0,7.298883502E0
3.532334958E0,-5.325176239E0,5.727988586E0,-9.630972290E-1,7.880032455E0
3.542292958E0,-5.705984344E0,6.183341675E0,-9.782157898E-1,8.470470928E0
3.552251958E0,-6.120322723E0,6.689289551E0,-1.150806885E0,9.139436603E0
3.562210958E0,-6.486311646E0,6.976841583E0,-1.072968750E0,9.586439338E0
3.572168958E0,-7.002737732E0,7.210355988E0,-5.852828979E-1,1.006827320E1
3.582127958E0,-7.644752655E0,7.611970825E0,3.344046021E-1,1.079333912E1
3.592086958E0,-8.253536682E0,8.013435974E0,1.507365417E0,1.160207630E1
3.602044958E0,-8.597820740E0,8.202343140E0,2.573598175E0,1.215830424E1
3.612004292E0,-8.643176422E0,8.418942719E0,3.430117035E0,1.254387492E1
3.621962292E0,-8.502768402E0,8.794511719E0,3.758683777E0,1.279719542E1
3.631921292E0,-8.389753418E0,9.446855164E0,3.738475800E0,1.317600987E1
3.641880292E0,-8.462651825E0,1.019949005E1,4.019441528E0,1.384925931E1
3.651838292E0,-8.707093506E0,1.069885162E1,4.773872681E0,1.459687514E1
3.661797292E0,-8.926537170E0,1.111229187E1,6.007607117E0,1.546794879E1
3.671756292E0,-9.041049042E0,1.167122955E1,7.525750122E0,1.657091072E1
3.681714292E0,-9.260642395E0,1.235381012E1,8.759035492E0,1.775096687E1
3.691673292E0,-9.511071625E0,1.314551376E1,9.680668945E0,1.889392407E1
3.701632292E0,-9.416917419E0,1.396969986E1,1.049033524E1,1.984635939E1
3.711590292E0,-9.086105347E0,1.469045105E1,1.105241638E1,2.050664698E1
3.721549292E0,-8.301287384E0,1.509925095E1,1.135763168E1,2.063721272E1
3.731507292E0,-7.317533112E0,1.528426620E1,1.136287079E1,2.040269386E1
3.741466292E0,-7.016808472E0,1.536195465E1,1.145223495E1,2.040536540E1
3.751425292E0,-7.005432129E0,1.540027496E1,1.202898560E1,2.075911951E1
3.761383292E0,-6.807693329E0,1.539084457E1,1.288505539E1,2.119545795E1
3.771342292E0,-6.357429657E0,1.504715927E1,1.379785721E1,2.138258117E1
3.781301292E0,-5.543422394E0,1.452699097E1,1.456591003E1,2.130560334E1
3.791259292E0,-4.155807953E0,1.417327652E1,1.476409790E1,2.088375191E1
3.801218292E0,-2.396366730E0,1.392658951E1,1.465901642E1,2.036121880E1
3.811177292E0,-7.455995178E-1,1.382420242E1,1.471514969E1,2.020396302E1
3.821135292E0,8.011340332E-1,1.396505951E1,1.515119293E1,2.062094445E1
3.831094292E0,1.943408661E0,1.413091461E1,1.573093735E1,2.123492347E1
3.841052292E0,2.223925323E0,1.419707703E1,1.637025787E1,2.178274966E1
3.851011292E0,1.661245422E0,1.407253601E1,1.665406769E1,2.186673219E1
3.860970292E0,9.857002258E-1,1.384800293E1,1.663475784E1,2.166688622E1
3.870928292E0,1.055305481E0,1.351913681E1,1.635289398E1,2.124377253E1
3.880887292E0,2.401755524E0,1.314012497E1,1.571042999E1,2.062156455E1
3.890846292E0,4.281845856E0,1.294073959E1,1.489956619E1,2.019391042E1
3.900804292E0,5.680387573E0,1.270722519E1,1.418150940E1,1.987097340E1
3.910763292E0,6.034251709E0,1.233150650E1,1.371313339E1,1.940433647E1
3.920722292E0,5.310955811E0,1.201805832E1,1.326286972E1,1.866932486E1
3.930680292E0,4.406536560E0,1.170311325E1,1.284793259E1,1.792902105E1
3.940639292E0,4.109554138E0,1.136257141E1,1.233135681E1,1.726438024E1
3.950597292E0,4.566703491E0,1.101708984E1,1.183424057E1,1.680119934E1
3.960556292E0,5.183271332E0,1.048180298E1,1.157752441E1,1.645519878E1
3.970515292E0,5.630690918E0,9.688602448E0,1.141945312E1,1.599930021E1
3.980473292E0,5.762416992E0,8.928932190E0,1.101110229E1,1.530279887E1
3.990432292E0,5.665718079E0,8.605155487E0,1.021176453E1,1.450617789E1
4.000391292E0,5.629792786E0,8.596623230E0,9.170679474E0,1.377308461E1
4.010349292E0,5.766608276E0,8.458610229E0,8.461304626E0,1.328139804E1
4.020308292E0,6.031856689E0,8.082292786E0,8.016429749E0,1.288293048E1
4.030267292E0,6.339467010E0,7.436835022E0,7.702682190E0,1.244293655E1
4.040225292E0,6.507118378E0,6.648574219E0,7.513176270E0,1.195800763E1
4.050184292E0,6.374045105E0,5.931864624E0,7.111112366E0,1.124203665E1
4.060142292E0,5.903423767E0,5.386847992E0,6.651567993E0,1.039768725E1
4.070101292E0,5.340145111E0,4.976251831E0,6.134992218E0,9.535112040E0
4.080060292E0,4.843627625E0,4.557572479E0,5.498366089E0,8.629265619E0
4.090018292E0,4.471351776E0,4.162693634E0,4.465214539E0,7.566977327E0
4.099977292E0,5.026098175E0,4.110751648E0,4.510869598E0,7.906192921E0
4.109936292E0,5.332211609E0,3.970643005E0,4.436474304E0,7.992545950E0
4.119894292E0,5.243595886E0,3.738026733E0,4.085903320E0,7.626450526E0
4.129853292E0,5.185816040E0,3.375929718E0,4.184548187E0,7.469941967E0
4.139812292E0,4.846920776E0,2.908900909E0,3.925736389E0,6.882278090E0
4.149770292E0,4.439617767E0,2.513273621E0,3.476670227E0,6.173652572E0
4.159729292E0,4.172573090E0,2.259401550E0,2.938988342E0,5.581479556E0
4.169688292E0,3.977079620E0,2.070644073E0,2.387984161E0,5.080078497E0
4.179646292E0,3.890709229E0,1.973645782E0,1.847458191E0,4.737720733E0
4.189605292E0,3.928131409E0,1.939367065E0,1.488804016E0,4.626867015E0
4.199563292E0,3.894750824E0,1.874102783E0,1.230890350E0,4.494044534E0
4.209522292E0,3.745810547E0,1.786085815E0,1.146615601E0,4.305336982E0
4.219481292E0,3.551065521E0,1.670526123E0,1.151854706E0,4.089925810E0
4.229439292E0,3.190914459E0,1.580563202E0,1.134041748E0,3.737133368E0
4.239398292E0,2.877765656E0,1.647623749E0,1.060544586E0,3.481516050E0
4.249357292E0,2.654130707E0,1.830393677E0,9.020242310E-1,3.347894642E0
4.259315292E0,2.403102722E0,2.032174072E0,7.644602966E-1,3.238677770E0
4.269274292E0,2.211201782E0,2.271077271E0,6.264472961E-1,3.231043408E0
4.279232292E0,2.058668976E0,2.421364746E0,5.993536377E-1,3.234246430E0
4.289191292E0,1.667532349E0,2.581082611E0,5.246589661E-1,3.117357633E0
4.299150292E0,1.369801483E0,2.812651062E0,2.850073242E-1,3.141431405E0
4.309108292E0,1.214723969E0,3.037633209E0,2.844085693E-3,3.271510037E0
4.319067292E0,1.003962250E0,3.172951813E0,-2.374063110E-1,3.336453980E0
4.329026292E0,7.241940308E-1,3.219804382E0,-6.173162842E-1,3.357480700E0
4.338984292E0,5.939648438E-1,3.272045746E0,-9.472302246E-1,3.457791592E0
4.348943292E0,5.725593567E-1,3.377725983E0,-1.068178711E0,3.588573921E0
4.358902292E0,4.891827393E-1,3.520529022E0,-1.119222565E0,3.726403561E0
4.368860292E0,3.821553040E-1,3.675157471E0,-1.133143616E0,3.864820767E0
4.378819292E0,3.992198181E-1,3.803440704E0,-1.224603424E0,4.015618408E0
4.388777292E0,4.153862000E-1,3.956272888E0,-1.525477753E0,4.260483920E0
4.398736292E0,1.754351807E-1,4.111051025E0,-1.834584961E0,4.505243613E0
4.408695292E0,-1.835183716E-1,4.099225616E0,-2.118843842E0,4.618097971E0
4.418653292E0,-5.825885010E-1,4.006568298E0,-2.217638397E0,4.616266776E0
4.428612292E0,-8.732839966E-1,3.976780243E0,-2.147584076E0,4.603207947E0
4.438571292E0,-1.024319916E0,4.069587250E0,-2.064656525E0,4.676919738E0
4.448529292E0,-1.328786774E0,4.375101929E0,-1.931433563E0,4.963630404E0
4.458488292E0,-1.658401337E0,4.774770813E0,-1.853445740E0,5.383678336E0
4.468447292E0,-1.808688812E0,5.024900665E0,-1.754351807E0,5.621274960E0
4.478405292E0,-2.190844116E0,5.046455841E0,-1.590592346E0,5.726822724E0
4.488364292E0,-2.591860199E0,5.176984406E0,-1.594783630E0,6.005184564E0
4.498322292E0,-3.105891266E0,5.450016632E0,-1.429676971E0,6.433756141E0
4.508281292E0,-3.748504944E0,5.674250336E0,-9.596543884E-1,6.867994084E0
4.518240292E0,-4.270170135E0,5.833219757E0,-5.926176453E-1,7.253413086E0
4.528198292E0,-4.488865356E0,5.943839722E0,-5.034031677E-1,7.465424139E0
4.538157292E0,-4.525838470E0,6.044879608E0,-1.001118164E0,7.617481271E0
4.548116292E0,-4.654421082E0,6.394103394E0,-1.388662262E0,8.029730798E0
4.558074292E0,-4.815037079E0,6.768923950E0,-1.441652069E0,8.430971130E0
4.568033292E0,-5.197491760E0,7.082072754E0,-1.362766113E0,8.889702277E0
4.577992292E0,-5.926625519E0,7.537575531E0,-7.601193237E-1,9.618613014E0
4.587950292E0,-6.696923676E0,7.939489746E0,3.716770935E-1,1.039338386E1
4.597909292E0,-7.067552948E0,8.173153839E0,1.580862579E0,1.092015910E1
4.607868292E0,-6.805747375E0,8.194259949E0,2.337688751E0,1.090545195E1
4.617825792E0,-6.824757843E0,8.398734741E0,2.173480225E0,1.103811946E1
4.627784792E0,-7.639513550E0,9.347461853E0,1.698667603E0,1.219109027E1
4.637742792E0,-8.662785645E0,1.043315414E1,1.724264374E0,1.366995421E1
4.647701792E0,-9.582323456E0,1.116722763E1,2.708767090E0,1.496212936E1
4.657660792E0,-9.970017242E0,1.150642227E1,4.186344452E0,1.579001194E1
4.667618792E0,-9.530231781E0,1.165132095E1,5.479056244E0,1.601869705E1
4.677577792E0,-8.409811707E0,1.215741852E1,6.644532623E0,1.620733080E1
4.687536792E0,-7.367828522E0,1.277593231E1,7.173831940E0,1.640040269E1
4.697494792E0,-6.973548431E0,1.334998856E1,6.962022400E0,1.659283966E1
4.707453792E0,-7.476801910E0,1.385069733E1,7.076234894E0,1.725738924E1
4.717412792E0,-8.579259338E0,1.424707306E1,7.856562195E0,1.839316044E1
4.727370792E0,-9.411229248E0,1.455378525E1,9.222471771E0,1.963257208E1
4.737329792E0,-9.325307922E0,1.501916748E1,1.104642883E1,2.084611114E1
4.747287792E0,-7.799979858E0,1.556044189E1,1.263492554E1,2.150833283E1
4.757246792E0,-5.862558746E0,1.609033997E1,1.342797638E1,2.176187457E1
4.767205792E0,-4.511019287E0,1.633747604E1,1.333561844E1,2.156620360E1
4.777163792E0,-4.250560913E0,1.606624008E1,1.297112640E1,2.108178025E1
4.787122792E0,-4.145479431E0,1.562914902E1,1.256187744E1,2.047574330E1
4.797081792E0,-3.799698486E0,1.511017822E1,1.207284439E1,1.971062572E1
4.807039792E0,-3.099155273E0,1.436068680E1,1.183693497E1,1.886656085E1
4.816998792E0,-2.061662750E0,1.383483032E1,1.172616531E1,1.825255972E1
4.826957792E0,-6.670129395E-1,1.347138611E1,1.190728867E1,1.799185019E1
4.836915792E0,8.927435303E-1,1.310884003E1,1.194171707E1,1.775509179E1
4.846874792E0,2.249821472E0,1.286843994E1,1.178484329E1,1.759377659E1
4.856832792E0,3.077001343E0,1.251068390E1,1.173140442E1,1.742443682E1
4.866791792E0,3.219505005E0,1.201940552E1,1.180879349E1,1.715455989E1
4.876750792E0,2.940784607E0,1.155791519E1,1.194336365E1,1.687831606E1
4.886708792E0,2.669698334E0,1.122620499E1,1.173020691E1,1.645456538E1
4.896667792E0,2.545307007E0,1.078192886E1,1.129985184E1,1.582451356E1
4.906626792E0,2.687062225E0,1.028690826E1,1.067280579E1,1.506484545E1
4.916584792E0,2.922372894E0,9.912237396E0,1.000459534E1,1.438348502E1
4.926543792E0,3.086132355E0,9.672735443E0,9.322014771E0,1.378354030E1
4.936502792E0,3.190465393E0,9.429191895E0,8.889564056E0,1.334590118E1
4.946460792E0,3.007396088E0,9.068591766E0,8.579558716E0,1.284105197E1
4.956419792E0,2.594255219E0,8.612789612E0,8.428373108E0,1.232670995E1
4.966377792E0,2.172432404E0,8.172854462E0,7.939340057E0,1.159948849E1
4.976336792E0,1.925446014E0,7.736661530E0,7.211703186E0,1.075043891E1
4.986295792E0,1.949096832E0,7.452552338E0,6.403533783E0,1.001722315E1
4.996253792E0,2.034718781E0,7.483837280E0,5.781427460E0,9.673303698E0
5.006212792E0,1.980381775E0,7.440577240E0,5.563330994E0,9.499197513E0
5.016171792E0,1.955383759E0,7.348818054E0,5.643863525E0,9.470050049E0
5.026129792E0,2.168390808E0,7.361541595E0,5.719905396E0,9.571391283E0
5.036088792E0,2.409239960E0,7.238198090E0,5.876928864E0,9.629861974E0
5.046047792E0,2.334395599E0,7.049590302E0,5.909261627E0,9.490284464E0
5.056005792E0,1.930086365E0,6.959627380E0,5.750591583E0,9.232060995E0
5.065964792E0,1.378932495E0,7.088958435E0,5.268593903E0,8.939399769E0
5.075922792E0,9.865983582E-1,7.164401550E0,4.797224121E0,8.678443706E0
5.085881792E0,8.093669128E-1,7.115902405E0,4.555626526E0,8.487925240E0
5.095840792E0,9.321116638E-1,7.115453339E0,4.257745972E0,8.344274032E0
5.105798792E0,1.357227631E0,7.094496918E0,4.148772583E0,8.329841973E0
5.115757792E0,1.486708374E0,7.110363922E0,3.933370514E0,8.260688863E0
5.125716792E0,1.203347626E0,7.019951935E0,3.743265839E0,8.046105257E0
5.135674792E0,5.318440247E-1,6.905739441E0,3.802093506E0,7.901139811E0
5.145633792E0,-2.288740540E-1,7.174281006E0,3.732937317E0,8.090581703E0
5.155592792E0,-3.287164307E-1,7.322622528E0,3.785478058E0,8.249769652E0
5.165550792E0,-1.017883301E-2,7.208110657E0,3.730542297E0,8.116274310E0
5.175509792E0,5.080435181E-1,7.151827698E0,3.327729950E0,7.904462933E0
5.185468792E0,8.324189758E-1,7.242539063E0,2.844235382E0,7.825405314E0
5.195426792E0,7.946974182E-1,7.357649689E0,2.314936066E0,7.754062285E0
5.205385792E0,5.536985779E-1,7.316784668E0,2.031126251E0,7.613632106E0
5.215343792E0,3.008743286E-1,7.335944824E0,1.845212860E0,7.570430789E0
5.225302792E0,2.356100464E-1,7.431296539E0,1.792073364E0,7.647954451E0
5.235261792E0,3.192860413E-1,7.653284912E0,1.930385742E0,7.899436856E0
5.245219792E0,3.760180664E-1,7.865842896E0,2.105072479E0,8.151331436E0
5.255178792E0,4.315525818E-1,8.016878815E0,2.199076996E0,8.324213068E0
5.265137792E0,4.384382629E-1,8.079897766E0,2.128423920E0,8.367028409E0
5.275095792E0,4.927752686E-1,8.029153290E0,2.075733490E0,8.307755385E0
5.285054792E0,5.481600952E-1,8.124205627E0,1.951791229E0,8.373331808E0
5.295013792E0,5.215155029E-1,8.223149872E0,1.735041962E0,8.420364769E0
5.304971792E0,5.340893555E-1,8.233179016E0,1.538051605E0,8.392621217E0
5.314930792E0,4.547543335E-1,8.254434814E0,1.312770081E0,8.370535281E0
5.324888792E0,2.531236267E-1,8.236172791E0,1.372495880E0,8.353583587E0
5.334847792E0,1.573228455E-1,8.359815674E0,1.419947205E0,8.481009294E0
5.344806792E0,2.261796570E-1,8.568332062E0,1.604363708E0,8.720175140E0
5.354764792E0,4.245172119E-1,8.682394867E0,1.887724457E0,8.895375153E0
5.364723792E0,6.360273743E-1,8.784632263E0,1.992805939E0,9.030258597E0
5.374682792E0,7.201524353E-1,8.898844757E0,1.876198425E0,9.122947883E0
5.384640792E0,6.569837952E-1,9.103618927E0,1.859283600E0,9.314743195E0
5.394599792E0,5.415737915E-1,9.241931305E0,1.567839661E0,9.389606894E0
5.404557792E0,5.891748047E-1,9.060059509E0,1.174457703E0,9.154843317E0
5.414516792E0,6.900650024E-1,9.002878418E0,1.205443268E0,9.109396412E0
5.424475792E0,6.737489319E-1,9.062005463E0,8.235873413E-1,9.124263079E0
5.434433792E0,5.855822754E-1,9.036109314E0,1.083596649E0,9.119668844E0
5.444392792E0,4.616400146E-1,9.228159943E0,1.378184052E0,9.341918363E0
5.454351792E0,5.044509888E-1,9.364676056E0,1.767524414E0,9.543362667E0
5.464309792E0,5.857319641E-1,9.548344116E0,2.183509369E0,9.812322378E0
5.474268792E0,6.415658569E-1,9.637408905E0,2.519710236E0,9.981993630E0
5.484227792E0,4.493655396E-1,9.653425598E0,2.760858765E0,1.005051721E1
5.494185792E0,2.760260010E-1,9.575737152E0,3.104693756E0,1.007025599E1
5.504144792E0,-8.532257080E-3,9.464817810E0,3.028951263E0,9.937675520E0
5.514103792E0,-1.528321838E-1,9.470356293E0,2.336341553E0,9.755485526E0