"Time (s)","Acceleration x (m/s^2)","Acceleration y (m/s^2)","Acceleration z (m/s^2)","Absolute acceleration (m/s^2)"
-7.778750150E-4,-3.805087280E-1,5.008734283E0,8.123457184E0,9.551060812E0
9.181125031E-3,-1.151106262E-1,4.954397278E0,8.055199127E0,9.457565005E0
1.913912501E-2,1.588197327E-1,4.914580078E0,7.940986633E0,9.340106518E0
2.909812500E-2,3.632945251E-1,5.023852844E0,7.957751770E0,9.417902821E0
3.905712499E-2,5.623805237E-1,5.192552032E0,8.071964264E0,9.614336979E0
4.901612503E-2,7.584727478E-1,5.313799896E0,8.221353607E0,9.818472660E0
5.897512502E-2,8.533753967E-1,5.244344330E0,8.374485168E0,9.917832367E0
6.893412501E-2,9.214837646E-1,5.050048370E0,8.419391785E0,9.860947160E0
7.889212499E-2,9.738748169E-1,4.845423889E0,8.315208435E0,9.673120290E0
8.885112498E-2,1.109193420E0,4.674778748E0,7.934849396E0,9.276082218E0
9.881012503E-2,8.466394043E-1,4.455784149E0,7.460186462E0,8.730704022E0
1.087691250E-1,2.104623413E-1,4.505331116E0,7.024292908E0,8.347634019E0
1.187281250E-1,-2.424957275E-1,4.696633301E0,6.756649475E0,8.232222098E0
1.286871250E-1,-4.914280701E-1,4.712051239E0,6.801855469E0,8.289159562E0
1.386451250E-1,-4.884342957E-1,4.510420532E0,7.176226959E0,8.490035030E0
1.486041250E-1,-1.240919495E-1,4.127666473E0,7.962990875E0,8.970075418E0
1.585631250E-1,2.038760376E-1,3.694766693E0,8.994795227E0,9.726212394E0
1.685221250E-1,2.426454163E-1,3.141217804E0,1.012689102E1,1.060566112E1
1.784811250E-1,-5.260061646E-1,2.708168335E0,1.104313568E1,1.138251747E1
1.884401250E-1,-1.540296936E0,2.462229767E0,1.131377289E1,1.168060559E1
1.983981250E-1,-2.125729523E0,2.201472015E0,1.113414642E1,1.154705251E1
2.083571250E-1,-2.225272522E0,2.082918549E0,1.100990479E1,1.142402691E1
2.183161250E-1,-2.168690186E0,2.172282715E0,1.116079102E1,1.157520131E1
2.282751250E-1,-1.912722473E0,2.385738831E0,1.131661697E1,1.172246035E1
2.382341250E-1,-1.504671021E0,2.709814911E0,1.157737473E1,1.198510481E1
2.481931250E-1,-1.255888367E0,3.057392120E0,1.181792450E1,1.227144008E1
2.581511250E-1,-1.296454010E0,3.368295593E0,1.164353714E1,1.219008471E1
2.681101250E-1,-1.363065491E0,3.417243805E0,1.113579300E1,1.172780408E1
2.780691250E-1,-1.275497589E0,3.054098969E0,1.039992325E1,1.091388190E1
2.880281250E-1,-1.195114746E0,2.700384521E0,9.729168091E0,1.016745236E1
2.979871250E-1,-1.249002686E0,3.080144806E0,9.731263733E0,1.028322875E1
3.079451250E-1,-1.809437256E0,3.626957703E0,1.018272491E1,1.095977974E1
3.179041250E-1,-2.168241119E0,4.027824097E0,1.097427887E1,1.188946732E1
3.278631250E-1,-2.136956177E0,4.281696167E0,1.162018570E1,1.256694949E1
3.378221250E-1,-1.866618347E0,4.326453094E0,1.152079239E1,1.244713291E1
3.477811250E-1,-1.600771179E0,4.155658264E0,1.044542862E1,1.135512849E1
3.577401250E-1,-1.319955139E0,3.905378723E0,9.446106720E0,1.030646383E1
3.676977917E-1,-1.219064941E0,3.512445831E0,9.508377228E0,1.020943841E1
3.776567917E-1,-1.725461884E0,3.089425507E0,1.034378998E1,1.093232637E1
3.876157917E-1,-2.651436310E0,2.574346619E0,1.127156067E1,1.186193302E1
3.975747917E-1,-3.431015167E0,1.799707489E0,1.172182434E1,1.234552461E1
4.075337917E-1,-4.165837097E0,8.954379272E-1,1.164772842E1,1.240264428E1
4.174927917E-1,-4.976251831E0,-7.918533325E-2,1.136676270E1,1.240857150E1
4.274507917E-1,-5.688620453E0,-1.058299255E0,1.100691101E1,1.243513128E1
4.374097917E-1,-5.511538696E0,-1.697769470E0,1.076561279E1,1.221302169E1
4.473687917E-1,-4.975653076E0,-1.961520996E0,1.087668182E1,1.212051549E1
4.573277917E-1,-4.895270233E0,-2.270478516E0,9.383387146E0,1.082435669E1
4.672867917E-1,-4.041445770E0,-2.667902069E0,8.408165131E0,9.703000888E0
4.772457917E-1,-3.441194000E0,-3.311862946E0,9.137298889E0,1.031021257E1
4.872037917E-1,-3.724854126E0,-3.755390625E0,8.690777435E0,1.017384438E1
4.971627917E-1,-3.256478119E0,-4.352498932E0,9.314230957E0,1.078442372E1
5.071217917E-1,-2.556084595E0,-4.899012451E0,9.667496338E0,1.113527624E1
5.170807917E-1,-1.963916016E0,-5.213658142E0,9.805060272E0,1.127734030E1
5.270397917E-1,-1.564396820E0,-5.044360199E0,9.965825958E0,1.127876741E1
5.369987917E-1,-1.474583588E0,-4.790787506E0,1.074615326E1,1.185773383E1
5.469567917E-1,-1.057550812E0,-5.012925568E0,1.146076721E1,1.255376523E1
5.569157916E-1,-4.808001709E-1,-5.231620789E0,1.163784897E1,1.276873343E1
5.668747917E-1,-6.601272583E-2,-5.352718964E0,1.126287872E1,1.247030052E1
5.768337917E-1,2.276765442E-1,-5.456153870E0,1.036774017E1,1.171799846E1
5.867927917E-1,5.908213806E-1,-5.504054260E0,9.510921936E0,1.100460446E1
5.967517917E-1,1.332229614E0,-5.707331543E0,8.675209808E0,1.046937125E1
6.067097917E-1,2.348915405E0,-5.603297882E0,7.860903168E0,9.935197499E0
6.166687917E-1,2.956352234E0,-5.119204559E0,7.482340393E0,9.535811009E0
6.266277917E-1,3.328628082E0,-4.881648560E0,7.681276703E0,9.690834296E0
6.365867917E-1,3.903881836E0,-4.677772522E0,7.885302429E0,9.964930685E0
6.465457916E-1,4.194427643E0,-4.253704376E0,7.835755463E0,9.853237429E0
6.565047917E-1,4.419709167E0,-3.887715454E0,7.869285736E0,9.827197900E0
6.664627917E-1,4.652475128E0,-3.716321869E0,7.822283478E0,9.830803215E0
6.764217917E-1,4.777614899E0,-3.532953186E0,7.637717285E0,9.676884192E0
6.863807917E-1,5.091212769E0,-3.294798431E0,7.307354279E0,9.495976554E0
6.963397917E-1,5.447771301E0,-2.998265076E0,6.926546173E0,9.308321412E0
7.062987917E-1,5.400469666E0,-2.652484131E0,6.585854645E0,8.920438671E0
7.162577917E-1,5.578898621E0,-2.343975677E0,6.591093750E0,8.947672805E0
7.262157917E-1,6.112389221E0,-1.856738892E0,6.749913483E0,9.293552245E0
7.361747917E-1,6.605463867E0,-1.408421173E0,7.122039642E0,9.815256072E0
7.461337917E-1,6.731501770E0,-1.110091553E0,7.904163208E0,1.044132249E1
7.560927917E-1,6.728358307E0,-1.054407349E0,8.950487366E0,1.124694645E1
7.660517917E-1,6.646777954E0,-9.602531433E-1,9.667047272E0,1.177087704E1
7.760107917E-1,6.512507172E0,-7.482939148E-1,1.038315811E1,1.227935934E1
7.859687917E-1,6.399492188E0,-5.026547241E-1,1.130239655E1,1.299808946E1
7.959277917E-1,6.294859772E0,-2.859054565E-1,1.197479828E1,1.353154815E1
8.058867917E-1,6.128256226E0,-1.688488770E-1,1.251861740E1,1.393914689E1
8.158457917E-1,5.927523651E0,-7.544311523E-2,1.319820419E1,1.446837317E1
8.258047916E-1,5.762267303E0,-1.348695374E-1,1.392703857E1,1.507263473E1
8.357637917E-1,5.268593903E0,-3.282673645E-1,1.449465820E1,1.542598320E1
8.457217917E-1,4.733606415E0,-5.620811462E-1,1.497470993E1,1.571511700E1
8.556807917E-1,4.233945465E0,-8.488847351E-1,1.521660690E1,1.581745950E1
8.656397916E-1,3.747008057E0,-1.059197388E0,1.503772888E1,1.553368142E1
8.755987917E-1,3.559448090E0,-1.112935638E0,1.456246719E1,1.503242320E1
8.855577917E-1,3.358416138E0,-1.160087585E0,1.417671936E1,1.461520215E1
8.955167917E-1,3.080294495E0,-1.257834320E0,1.394574966E1,1.433716482E1
9.054747917E-1,2.588567047E0,-1.389261017E0,1.378887589E1,1.409836245E1
9.154337917E-1,1.948647766E0,-1.530417480E0,1.352287903E1,1.374800578E1
9.253927917E-1,1.401086426E0,-1.765129395E0,1.303519318E1,1.322856705E1
9.353517917E-1,9.831555176E-1,-1.812730408E0,1.251292923E1,1.268171850E1
9.453107917E-1,9.045689392E-1,-1.626966705E0,1.196731384E1,1.211122893E1
9.552697917E-1,1.012195129E0,-1.354832611E0,1.124865829E1,1.137507907E1
9.652277917E-1,8.963360596E-1,-8.443940735E-1,1.063747925E1,1.070851925E1
9.751867917E-1,7.640112305E-1,-4.228706360E-1,1.022044647E1,1.025768292E1
9.851457917E-1,6.448590088E-1,-1.184037781E-1,9.700427856E0,9.722559498E0
9.951047917E-1,5.827381897E-1,3.414399719E-1,9.233848114E0,9.258515866E0
1.005063792E0,3.839515686E-1,6.221063232E-1,9.088200989E0,9.117556268E0
1.015022792E0,-2.095642090E-3,6.979985046E-1,9.354347534E0,9.380353090E0
1.024980792E0,-6.972500610E-1,8.750802612E-1,9.520651703E0,9.586174000E0
1.034939792E0,-1.500180359E0,1.056502991E0,9.673334198E0,9.845818106E0
1.044898792E0,-2.342329102E0,9.029223633E-1,9.891730042E0,1.020529753E1
1.054857792E0,-3.151696014E0,7.209008789E-1,9.936187592E0,1.044895735E1
1.064816792E0,-3.855981445E0,8.595126343E-1,9.996212769E0,1.074856384E1
1.074775792E0,-4.226161652E0,1.183439026E0,1.003318588E1,1.095106338E1
1.084733792E0,-4.231700134E0,1.475781097E0,9.930948486E0,1.089536386E1
1.094692792E0,-3.966302032E0,1.669029236E0,1.012614258E1,1.100254397E1
1.104651792E0,-3.811224518E0,1.669478302E0,1.039663010E1,1.119832610E1
1.114610792E0,-3.925137634E0,1.399140472E0,1.063568298E1,1.142287407E1
1.124569792E0,-4.265080719E0,6.611750793E-1,1.093251572E1,1.175363628E1
1.134528792E0,-4.645589447E0,4.385879517E-2,1.096529755E1,1.190886960E1
1.144486792E0,-4.739294586E0,-2.201921082E-1,1.086530548E1,1.185597997E1
1.154445792E0,-4.453688507E0,-3.053649902E-1,1.041354492E1,1.133007091E1
1.164404792E0,-4.099225616E0,-3.838018799E-1,9.883347473E0,1.070661066E1
1.174363792E0,-3.841162262E0,-6.673123169E-1,9.735754395E0,1.048736129E1
1.184322792E0,-3.681145020E0,-1.276096344E0,1.004381378E1,1.077299614E1
1.194281792E0,-3.641627197E0,-2.014510803E0,1.065140030E1,1.143555992E1
1.204239792E0,-4.075574799E0,-2.473905487E0,1.139729919E1,1.235430885E1
1.214198792E0,-4.835694122E0,-2.364932098E0,1.211730194E1,1.325917976E1
1.224157792E0,-5.197791138E0,-2.030976563E0,1.276949570E1,1.393563486E1
1.234116792E0,-4.881947937E0,-2.115550690E0,1.294073959E1,1.399184447E1
1.244075792E0,-3.977528687E0,-2.207309875E0,1.231144821E1,1.312496508E1
1.254034792E0,-2.976260834E0,-1.943408661E0,1.140657990E1,1.194759518E1
1.263992792E0,-2.192640381E0,-1.809437256E0,1.088835754E1,1.125335794E1
1.273951792E0,-1.743424530E0,-1.946402435E0,1.081650696E1,1.112766077E1
1.283910792E0,-1.591041412E0,-2.125130768E0,1.095975906E1,1.127669776E1
1.293869792E0,-1.623673553E0,-2.496209106E0,1.141346558E1,1.179553187E1
1.303828792E0,-1.865570526E0,-2.976859589E0,1.184456909E1,1.235458876E1
1.313787792E0,-2.059567108E0,-3.242407379E0,1.215741852E1,1.274981754E1
1.323745792E0,-2.266436920E0,-3.497027893E0,1.223405914E1,1.292432372E1
1.333704792E0,-2.304906921E0,-4.017196198E0,1.200548447E1,1.286787156E1
1.343663792E0,-1.912872162E0,-4.708907776E0,1.140463394E1,1.248593479E1
1.353622792E0,-1.660347290E0,-5.241200867E0,1.067370392E1,1.200645222E1
1.363581792E0,-1.555265808E0,-5.638325043E0,1.015263748E1,1.171689416E1
1.373541000E0,-1.542691956E0,-6.057902527E0,9.934391327E0,1.173755565E1
1.383499000E0,-1.756447449E0,-6.404282227E0,9.803413696E0,1.184089771E1
1.393458000E0,-1.908531189E0,-6.523733826E0,9.710307312E0,1.185291789E1
1.403417000E0,-1.771715698E0,-6.488107910E0,9.718091125E0,1.181845235E1
1.413376000E0,-1.044078827E0,-6.383176117E0,9.839189301E0,1.177474773E1
1.423335000E0,1.905537415E-1,-6.326893158E0,9.758806458E0,1.163186104E1
1.433293000E0,1.563199310E0,-6.234984283E0,9.416917419E0,1.140162071E1
1.443252000E0,2.404150543E0,-5.989943848E0,9.176966400E0,1.121945094E1
1.453211000E0,2.848127289E0,-5.738017731E0,9.128167877E0,1.115168711E1
1.463170000E0,2.916984100E0,-5.684728546E0,9.107510834E0,1.112527251E1
1.473129000E0,2.827021179E0,-5.900729370E0,9.021888885E0,1.114473575E1
1.483088000E0,2.911295929E0,-6.125262451E0,8.888516235E0,1.118034905E1
1.493047000E0,3.235671387E0,-6.296656036E0,8.617579651E0,1.115258381E1
1.503005000E0,3.656745758E0,-6.350843353E0,8.362809448E0,1.111942367E1
1.512964000E0,4.148024139E0,-6.205944672E0,8.135432281E0,1.104106480E1
1.522923000E0,4.645439758E0,-5.873186646E0,8.145162048E0,1.106427118E1
1.532882000E0,4.907245331E0,-5.449866943E0,8.502768402E0,1.122849843E1
1.542841000E0,5.467979279E0,-4.988226929E0,8.966504059E0,1.162666764E1
1.552799000E0,6.210734711E0,-4.540807343E0,9.187893677E0,1.198372009E1
1.562758000E0,6.855743408E0,-3.987557831E0,9.311686249E0,1.223148952E1
1.572717000E0,7.230563965E0,-3.505560150E0,9.472451935E0,1.242164856E1
1.582676000E0,7.407795410E0,-3.117267609E0,9.506880341E0,1.244883786E1
1.592635000E0,7.363487549E0,-2.669398956E0,9.384434967E0,1.222351256E1
1.602594000E0,7.088060303E0,-2.310744781E0,9.138047333E0,1.179339007E1
1.612552000E0,7.086862793E0,-2.155517578E0,8.893905029E0,1.157460267E1
1.622511000E0,7.124284973E0,-2.043101349E0,8.711135101E0,1.143737620E1
1.632470000E0,7.204967194E0,-1.627415771E0,8.958420868E0,1.161091464E1
1.642429000E0,7.370672607E0,-1.180594940E0,9.517508240E0,1.209560177E1
1.652388000E0,7.410340118E0,-5.587879944E-1,1.022793091E1,1.264262454E1
1.662347000E0,7.385042725E0,1.228944397E-1,1.127260849E1,1.347685650E1
1.672305000E0,7.146289215E0,7.473957825E-1,1.191567123E1,1.391442672E1
1.682264000E0,7.002737732E0,1.449884949E0,1.206027054E1,1.402107797E1
1.692223000E0,7.157815247E0,1.789229279E0,1.211939758E1,1.418856787E1
1.702182000E0,6.928342438E0,1.733844452E0,1.203392532E1,1.399369516E1
1.712141000E0,6.335126038E0,1.606908417E0,1.220771393E1,1.384717502E1
1.722100000E0,5.717360687E0,1.598226471E0,1.257729538E1,1.390794378E1
1.732058000E0,5.330115967E0,1.753303986E0,1.267698807E1,1.386326937E1
1.742017000E0,5.077441406E0,1.973346405E0,1.243089981E1,1.357209554E1
1.751976000E0,4.916076965E0,2.176773376E0,1.201775894E1,1.316558715E1
1.761935000E0,4.657414856E0,2.366129608E0,1.144430145E1,1.258022727E1
1.771894000E0,4.193529510E0,2.398911438E0,1.102367615E1,1.203585899E1
1.781853000E0,3.514092407E0,2.225422211E0,1.098281113E1,1.174408318E1
1.791811000E0,2.715652771E0,2.034120026E0,1.130539032E1,1.180356999E1
1.801770000E0,1.641935577E0,1.798060913E0,1.158934982E1,1.184238172E1
1.811729000E0,5.384303284E-1,1.785037994E0,1.162093414E1,1.176955302E1
1.821688000E0,-1.338217163E-1,2.023492126E0,1.139894577E1,1.157792699E1
1.831647000E0,-4.995112610E-1,2.236798553E0,1.085752167E1,1.109678134E1
1.841606000E0,-6.291416931E-1,2.415377197E0,1.022808060E1,1.052822392E1
1.851564000E0,-7.961943054E-1,2.259102173E0,9.895921326E0,1.018168586E1
1.861523000E0,-1.306632843E0,1.907034302E0,9.916278992E0,1.018217355E1
1.871482000E0,-2.150577850E0,1.864971771E0,9.982591095E0,1.038052165E1
1.881441000E0,-2.859653320E0,1.903292084E0,1.004710693E1,1.061812110E1
1.891400000E0,-3.036585388E0,1.995350647E0,9.919572144E0,1.056409895E1
1.901359000E0,-2.756068726E0,2.082319794E0,9.803563385E0,1.039431699E1
1.911317000E0,-2.352358246E0,1.829345856E0,9.738598480E0,1.018432108E1
1.921276000E0,-1.985920258E0,1.777852936E0,9.450896759E0,9.819576869E0
1.931235000E0,-1.951791229E0,1.755699005E0,9.427395630E0,9.786100161E0
1.941194000E0,-2.115401001E0,1.268162842E0,1.009096573E1,1.038800981E1
1.951153000E0,-2.454296265E0,7.674540710E-1,1.118474121E1,1.147654094E1
1.961112000E0,-2.805466003E0,2.676434326E-1,1.226609253E1,1.258567831E1
1.971070000E0,-3.157234497E0,-1.392105103E-1,1.335253326E1,1.372143046E1
1.981029000E0,-3.559597778E0,-6.559359741E-1,1.408540924E1,1.454303070E1
1.990988000E0,-3.382216644E0,-1.080303497E0,1.402044434E1,1.446303234E1
2.000947000E0,-3.197800140E0,-1.348845062E0,1.354398514E1,1.398158940E1
2.010906000E0,-3.552113342E0,-1.919009399E0,1.273297165E1,1.335771961E1
2.020865000E0,-3.997586975E0,-2.503244476E0,1.199964661E1,1.289334919E1
2.030823000E0,-4.377946014E0,-3.079246674E0,1.199545532E1,1.313541472E1
2.040782000E0,-4.812043304E0,-3.517834625E0,1.213361801E1,1.351871323E1
2.050741000E0,-5.172643433E0,-3.877686310E0,1.214694031E1,1.376011810E1
2.060700000E0,-5.682034149E0,-4.198618927E0,1.171643555E1,1.368169488E1
2.070659000E0,-6.168073425E0,-4.420158234E0,1.107457031E1,1.342494083E1
2.080618000E0,-6.451134796E0,-5.001249847E0,1.095511871E1,1.366178122E1
2.090576000E0,-6.600224762E0,-5.661377106E0,1.099209183E1,1.401571405E1
2.100535000E0,-6.155499573E0,-5.942043457E0,1.087713089E1,1.383871496E1
2.110494000E0,-5.424120483E0,-6.244564362E0,1.092802505E1,1.370537846E1
2.120453000E0,-4.865033112E0,-6.442003784E0,1.157468033E1,1.411173925E1
2.130412000E0,-4.464765472E0,-6.391858063E0,1.215771790E1,1.444299431E1
2.140371000E0,-4.152664490E0,-6.413263550E0,1.250170258E1,1.465152344E1
2.150329000E0,-3.960613861E0,-6.346801758E0,1.245964005E1,1.453309963E1
2.160288000E0,-3.759731598E0,-6.360722809E0,1.214888626E1,1.421934646E1
2.170247000E0,-3.538791046E0,-6.631659393E0,1.164009430E1,1.385618070E1
2.180206000E0,-3.108136597E0,-6.984625397E0,1.087189178E1,1.329073121E1
2.190165000E0,-2.184706879E0,-7.216343536E0,1.008048752E1,1.258827974E1
2.200124000E0,-1.190025330E0,-7.202123108E0,9.411378937E0,1.191053278E1
2.210082000E0,-4.191284180E-1,-6.997498627E0,8.968899078E0,1.138340047E1
2.220041000E0,1.977388000E-1,-6.845564575E0,8.830287323E0,1.117474068E1
2.230000000E0,7.858657837E-1,-6.832691345E0,8.832532654E0,1.119450263E1
2.239959000E0,1.388362885E0,-6.759044495E0,8.859027557E0,1.122918533E1
2.249918000E0,1.964963837E0,-6.730453949E0,8.797206116E0,1.124948571E1
2.259877000E0,2.386636963E0,-6.696773987E0,8.656049652E0,1.120133980E1
2.269835000E0,2.712658997E0,-6.603517914E0,8.495882721E0,1.109707127E1
2.279794000E0,3.072510681E0,-6.453529816E0,8.198600922E0,1.087682978E1
2.289753000E0,3.445235596E0,-6.256240082E0,8.059091034E0,1.076843241E1
2.299712000E0,3.978576508E0,-5.856271820E0,8.155340881E0,1.079974887E1
2.309671000E0,4.353546753E0,-5.491779785E0,8.264463959E0,1.083579158E1
2.319630000E0,4.554279327E0,-5.359005890E0,8.655450897E0,1.115245419E1
2.329588000E0,4.754862213E0,-5.155728607E0,8.740773468E0,1.120675568E1
2.339547000E0,5.265749817E0,-5.078638916E0,8.529263306E0,1.123694918E1
2.349506000E0,5.772895203E0,-4.944966888E0,8.026159515E0,1.105433187E1
2.359465000E0,6.230792999E0,-4.427492981E0,7.638016663E0,1.080577503E1
2.369424250E0,6.594386902E0,-3.912264404E0,7.805817719E0,1.094177964E1
2.379383250E0,6.832541656E0,-3.497776337E0,8.109835510E0,1.116635557E1
2.389341250E0,6.897207184E0,-3.176095276E0,8.538244629E0,1.142631478E1
2.399300250E0,6.871161346E0,-2.821482697E0,8.951834564E0,1.163223817E1
2.409259250E0,6.810238037E0,-2.570903778E0,9.136400757E0,1.168172535E1
2.419218250E0,6.648873596E0,-2.248923340E0,9.392368469E0,1.172526169E1
2.429177250E0,6.610702972E0,-1.884281616E0,9.920619965E0,1.206940808E1
2.439136250E0,6.875951385E0,-1.399589539E0,1.061966629E1,1.272850621E1
2.449094250E0,7.251071320E0,-9.277706909E-1,1.113249985E1,1.331808344E1
2.459053250E0,7.434140625E0,-5.328918457E-1,1.124820923E1,1.349342919E1
2.469012250E0,7.385491791E0,-6.556365967E-2,1.119237534E1,1.340966268E1
2.478971250E0,7.304061127E0,1.725910950E-1,1.126692032E1,1.342842471E1
2.488930250E0,6.936425629E0,1.252894592E-1,1.147379013E1,1.340811538E1
2.498889250E0,6.297703857E0,3.010240173E-1,1.175266022E1,1.333704283E1
2.508847250E0,5.825136566E0,3.954776001E-1,1.209125610E1,1.342710292E1
2.518806250E0,5.632936249E0,5.385800171E-1,1.219274506E1,1.344184032E1
2.528765250E0,5.533692627E0,7.696994019E-1,1.206296494E1,1.329395781E1
2.538724250E0,5.145250397E0,9.512718201E-1,1.188678131E1,1.298745894E1
2.548683250E0,4.899611206E0,8.146060181E-1,1.198587524E1,1.297424288E1
2.558642250E0,4.737797699E0,6.984475708E-1,1.204096069E1,1.295836758E1
2.568600250E0,4.479584656E0,6.777905273E-1,1.194201645E1,1.277254225E1
2.578559250E0,4.179458771E0,4.748126221E-1,1.158006912E1,1.232036215E1
2.588518250E0,3.820355530E0,3.468287659E-1,1.089359665E1,1.154927939E1
2.598477250E0,3.414998474E0,3.065625000E-1,1.011117371E1,1.067670496E1
2.608436250E0,3.040327606E0,1.642085266E-1,9.691446533E0,1.015847884E1
2.618395250E0,2.613565063E0,1.055305481E-1,9.690099335E0,1.003692603E1
2.628353250E0,2.191293182E0,3.607498169E-2,9.908345490E0,1.014782625E1
2.638312250E0,1.747765503E0,1.416055298E-1,1.019559814E1,1.034528675E1
2.648271250E0,1.260678406E0,5.340893555E-1,1.036729111E1,1.045730780E1
2.658230250E0,7.182064819E-1,8.632548523E-1,1.036744080E1,1.042808027E1
2.668189250E0,6.227050781E-2,9.981243896E-1,1.008497818E1,1.013444201E1
2.678148250E0,-5.120851135E-1,1.249751129E0,9.850715332E0,9.942871899E0
2.688106250E0,-8.035290527E-1,1.360371094E0,9.714348907E0,9.841993860E0
2.698065250E0,-9.819580078E-1,1.199306030E0,9.762548676E0,9.884833490E0
2.708024250E0,-1.148711243E0,1.102607117E0,1.008048752E1,1.020546464E1
2.717983250E0,-1.297352142E0,1.140478363E0,1.041055115E1,1.055288532E1
2.727942250E0,-1.485810242E0,1.276844788E0,1.083985840E1,1.101546616E1
2.737901250E0,-1.775457916E0,1.430575104E0,1.133622620E1,1.156325302E1
2.747859250E0,-2.082469482E0,1.705104218E0,1.171389084E1,1.201912219E1
2.757818250E0,-2.179018707E0,1.733096008E0,1.193093948E1,1.225149221E1
2.767777250E0,-2.024240570E0,1.295106812E0,1.191716812E1,1.215704518E1
2.777736250E0,-2.452799377E0,6.818321228E-1,1.158545792E1,1.186186979E1
2.787695250E0,-3.065325623E0,1.814227295E-1,1.119222565E1,1.160581967E1
2.797654250E0,-3.362158356E0,2.634521484E-2,1.096215408E1,1.146619488E1
2.807612250E0,-3.066822510E0,-4.113446045E-1,1.118159775E1,1.160184179E1
2.817571250E0,-2.596799927E0,-9.982740784E-1,1.180535065E1,1.212873550E1
2.827530250E0,-2.554138641E0,-1.293759613E0,1.264300873E1,1.296314421E1
2.837489250E0,-2.969973907E0,-1.580263824E0,1.337184311E1,1.378855202E1
2.847448250E0,-3.452121277E0,-1.626667328E0,1.377330826E1,1.429220796E1
2.857407250E0,-3.753294983E0,-1.740580444E0,1.411145508E1,1.470544144E1
2.867365250E0,-3.946393433E0,-2.314037933E0,1.394919250E1,1.468021676E1
2.877324250E0,-3.967798920E0,-2.639161835E0,1.286005737E1,1.371457907E1
2.887283250E0,-3.811074829E0,-2.728226624E0,1.178289734E1,1.268085887E1
2.897242250E0,-3.842359772E0,-2.983146515E0,1.110465775E1,1.212337888E1
2.907201250E0,-3.970343628E0,-3.067121887E0,1.083297272E1,1.193834842E1
2.917160250E0,-4.134252777E0,-2.992277527E0,1.067699707E1,1.183402033E1
2.927118250E0,-3.978576508E0,-2.939736786E0,1.060918808E1,1.170581031E1
2.937077250E0,-3.770060120E0,-2.986289978E0,1.079540085E1,1.181828924E1
2.947036250E0,-3.712579651E0,-3.257975006E0,1.121842117E1,1.225767606E1
2.956995250E0,-3.773053894E0,-3.593427429E0,1.140149048E1,1.253565481E1
2.966954250E0,-3.874842224E0,-4.344715118E0,1.138218063E1,1.278456052E1
2.976912250E0,-3.723057861E0,-5.048701172E0,1.110241241E1,1.275202356E1
2.986871250E0,-3.386856995E0,-5.231471100E0,1.065199905E1,1.234115773E1
2.996830250E0,-3.071313171E0,-5.343887329E0,1.036055511E1,1.205533901E1
3.006789250E0,-2.856210480E0,-5.472469940E0,1.031744476E1,1.202312488E1
3.016748250E0,-2.855462036E0,-5.502407684E0,1.031969009E1,1.203852804E1
3.026707250E0,-2.837798767E0,-5.509443054E0,1.033435959E1,1.205014741E1
3.036665250E0,-2.705174561E0,-5.472170563E0,1.027912445E1,1.195504160E1
3.046624250E0,-2.413131866E0,-5.480403442E0,1.024439667E1,1.186615736E1
3.056583250E0,-2.045496368E0,-5.491330719E0,1.016835480E1,1.173602180E1
3.066542250E0,-1.621278534E0,-5.473368073E0,9.964029694E0,1.148338756E1
3.076501250E0,-1.185085602E0,-5.567222900E0,9.711355133E0,1.125650111E1
3.086460250E0,-5.221142578E-1,-5.783672791E0,9.426946564E0,1.107207279E1
3.096418250E0,4.105961609E-1,-5.754633179E0,8.936117249E0,1.063666224E1
3.106377250E0,1.348695374E0,-5.475912781E0,8.568182373E0,1.025759958E1
3.116336250E0,1.893412628E0,-5.193899231E0,8.572523346E0,1.020047828E1
3.126295250E0,2.102827148E0,-4.969366150E0,8.850046234E0,1.036531718E1
3.136254250E0,2.268382874E0,-4.746479645E0,9.176367645E0,1.057735095E1
3.146213250E0,2.377655640E0,-4.503385162E0,9.446406097E0,1.073165003E1
3.156171250E0,2.547252960E0,-4.507277069E0,9.561217346E0,1.087294447E1
3.166130250E0,2.842289429E0,-4.643493805E0,9.419911194E0,1.088004461E1
3.176089250E0,3.150947571E0,-4.700076141E0,9.145831146E0,1.075478562E1
3.186048250E0,3.481759644E0,-4.653972015E0,8.922196198E0,1.064836564E1
3.196007250E0,3.878584442E0,-4.411027222E0,8.655151520E0,1.046002994E1
3.205966250E0,4.271966400E0,-4.093537445E0,8.523275757E0,1.037559518E1
3.215924250E0,4.486470337E0,-3.750151520E0,8.496331787E0,1.031405383E1
3.225883250E0,4.497247925E0,-3.602558441E0,8.547675018E0,1.030856025E1
3.235842250E0,4.399800568E0,-3.630101166E0,8.750203857E0,1.044518775E1
3.245801250E0,4.325554962E0,-3.614982605E0,8.986712036E0,1.060846446E1
3.255760250E0,4.540058899E0,-3.604953461E0,9.145382080E0,1.082801171E1
3.265719250E0,4.825365601E0,-3.450624390E0,9.204060059E0,1.095014536E1
3.275677250E0,5.252427521E0,-3.123554535E0,9.191935272E0,1.103794645E1
3.285636250E0,5.769452362E0,-2.724634094E0,9.269623718E0,1.125327221E1
3.295595250E0,6.222111053E0,-2.413730621E0,9.338031464E0,1.147778694E1
3.305554250E0,6.492897949E0,-2.132914581E0,9.499096527E0,1.170213157E1
3.315513250E0,6.437363434E0,-1.757495270E0,9.812844086E0,1.186677491E1
3.325472250E0,6.246809692E0,-1.412013702E0,1.022942780E1,1.206886934E1
3.335430250E0,5.988746338E0,-1.226250000E0,1.049377808E1,1.214446994E1
3.345389250E0,6.083499298E0,-1.050964508E0,1.070663544E1,1.235902636E1
3.355348250E0,6.328090668E0,-7.780819702E-1,1.091604996E1,1.264160946E1
3.365307250E0,6.300997009E0,-4.757107544E-1,1.097847015E1,1.266710981E1
3.375266792E0,6.239924011E0,-2.534230042E-1,1.114686996E1,1.277707263E1
3.385225792E0,6.145171051E0,-4.490661621E-2,1.126632156E1,1.283336064E1
3.395183792E0,6.068231049E0,2.739303589E-1,1.134954849E1,1.287286747E1
3.405142792E0,5.883066101E0,5.251080322E-1,1.146181503E1,1.289416182E1
3.415101792E0,5.520520020E0,5.632786560E-1,1.159354111E1,1.285315601E1
3.425060792E0,5.153333588E0,4.043092346E-1,1.147184418E1,1.258266752E1
3.435019792E0,5.040318604E0,3.076103210E-1,1.113205078E1,1.222382879E1
3.444978792E0,4.930297394E0,3.788621521E-1,1.074390793E1,1.182721127E1
3.454936792E0,4.683011627E0,4.090992737E-1,1.043510010E1,1.144505457E1
3.464895792E0,4.374353485E0,2.806663513E-1,1.035860916E1,1.124786761E1
3.474854792E0,3.911815338E0,8.801696777E-2,1.049302963E1,1.119882659E1
3.484813792E0,3.464545441E0,5.074447632E-2,1.086545517E1,1.140455024E1
3.494772792E0,3.219654694E0,3.372486877E-1,1.132589767E1,1.177946820E1
3.504731792E0,3.147205353E0,5.788462830E-1,1.160446838E1,1.203759324E1
3.514689792E0,2.894680481E0,9.506730652E-1,1.155147858E1,1.194653137E1
3.524648792E0,2.390828247E0,8.592132568E-1,1.128488297E1,1.156731994E1
3.534607792E0,1.500030670E0,9.907896423E-1,1.126811783E1,1.141061942E1
3.544566792E0,1.240021362E0,3.435356140E-1,1.099733093E1,1.107235103E1
3.554525792E0,3.189866638E-1,3.562591553E-1,1.037567368E1,1.038668750E1
3.564484792E0,-4.206253052E-2,5.815406799E-1,1.022972717E1,1.024632992E1
3.574442792E0,-3.620970154E-1,7.520361328E-1,1.003378464E1,1.006844113E1
3.584401792E0,-6.617738342E-1,1.086590424E0,9.980345764E0,1.006110953E1
3.594360792E0,-1.006207581E0,1.483265533E0,9.940678253E0,1.010097097E1
3.604319792E0,-1.175804901E0,1.776655426E0,1.017778519E1,1.039838127E1
3.614278792E0,-1.135987701E0,2.093247070E0,1.055559952E1,1.082094416E1
3.624237792E0,-1.115480347E0,2.408641205E0,1.090197922E1,1.122047235E1
3.634195792E0,-1.067280579E0,2.180365906E0,1.119492004E1,1.145510009E1
3.644154792E0,-9.586065674E-1,1.715881805E0,1.121288269E1,1.138384448E1
3.654113792E0,-1.152004395E0,1.419198761E0,1.094703552E1,1.109859568E1
3.664072792E0,-1.681303711E0,9.026229858E-1,1.075169174E1,1.091972462E1
3.674031792E0,-2.289189606E0,4.661306763E-1,1.066277664E1,1.091569845E1
3.683990792E0,-2.768642578E0,3.065625000E-1,1.053134995E1,1.089351614E1
3.693948792E0,-3.023861847E0,2.454895020E-1,1.056862244E1,1.099544386E1
3.703907792E0,-3.107238464E0,3.284170532E-1,1.084794159E1,1.128896033E1
3.713866792E0,-3.072510681E0,3.067121887E-1,1.148471741E1,1.189256609E1
3.723825792E0,-2.952310638E0,7.948471069E-2,1.197629517E1,1.233507608E1
3.733784792E0,-3.010090485E0,-2.237846375E-1,1.188408691E1,1.226141289E1
3.743743792E0,-3.194207611E0,-4.709207153E-1,1.142993134E1,1.187720754E1
3.753701792E0,-3.444187775E0,-5.049000549E-1,1.103924377E1,1.157507048E1
3.763660792E0,-3.642525330E0,-6.102809143E-1,1.082069824E1,1.143363214E1
3.773619792E0,-3.755690002E0,-1.082099762E0,1.118324432E1,1.184656494E1
3.783578792E0,-3.892505493E0,-1.840572510E0,1.161704224E1,1.238930896E1
3.793537792E0,-3.965403900E0,-2.397264862E0,1.175894714E1,1.263899303E1
3.803496792E0,-3.955823822E0,-2.896925812E0,1.164383652E1,1.263406705E1
3.813454792E0,-4.029320984E0,-3.115920410E0,1.142439285E1,1.250844273E1
3.823413792E0,-4.164938965E0,-2.922672272E0,1.126287872E1,1.235884974E1
3.833372792E0,-4.242627411E0,-2.647394714E0,1.140119110E1,1.244972870E1
3.843331792E0,-4.193529510E0,-2.568059692E0,1.183888092E1,1.281950552E1
3.853290792E0,-4.095034332E0,-2.556383972E0,1.211939758E1,1.304546676E1
3.863249792E0,-3.953129425E0,-2.803669739E0,1.215188004E1,1.308265969E1
3.873207792E0,-3.672313385E0,-3.260819092E0,1.208452011E1,1.304432647E1
3.883166792E0,-3.310066681E0,-3.366050262E0,1.171898026E1,1.263413369E1
3.893125792E0,-3.027005310E0,-3.293750610E0,1.125494522E1,1.211137260E1
3.903084792E0,-2.838996277E0,-3.329675903E0,1.099718124E1,1.183573558E1
3.913043792E0,-2.708916779E0,-3.498075714E0,1.087892715E1,1.174418238E1
3.923002792E0,-2.696791992E0,-3.674259338E0,1.080078964E1,1.172305104E1
3.932960792E0,-2.665806427E0,-3.872896271E0,1.069361252E1,1.168157516E1
3.942919792E0,-2.485132141E0,-4.142186279E0,1.048973648E1,1.154851334E1
3.952878792E0,-2.067799988E0,-4.364024963E0,1.019320312E1,1.127926862E1
3.962837792E0,-1.695075073E0,-4.486021271E0,1.018766464E1,1.125993682E1
3.972796792E0,-1.412163391E0,-4.567002869E0,1.041623932E1,1.146079239E1
3.982755792E0,-1.157542877E0,-4.638404388E0,1.056922119E1,1.160013523E1
3.992713792E0,-8.457412720E-1,-4.706363068E0,1.053284683E1,1.156745409E1
4.002672792E0,-4.496649170E-1,-4.650379486E0,1.015443375E1,1.117768995E1
4.012631792E0,-2.544708252E-3,-4.556225281E0,9.716594238E0,1.073179383E1
4.022590792E0,4.849914551E-1,-4.512665863E0,9.386829987E0,1.042650215E1
4.032549792E0,8.804690552E-1,-4.466112671E0,9.113199005E0,1.018684368E1
4.042508792E0,1.295106812E0,-4.399650879E0,8.948391724E0,1.005524460E1
4.052466792E0,1.913470917E0,-4.304598541E0,8.879983978E0,1.005211694E1
4.062425792E0,2.399659882E0,-4.190984802E0,8.889863434E0,1.011693595E1
4.072384792E0,2.602787476E0,-4.184099121E0,9.046587524E0,1.030155007E1
4.082343792E0,2.696791992E0,-4.223916321E0,9.294921112E0,1.055981603E1
4.092302792E0,2.719245300E0,-4.293671265E0,9.286089478E0,1.058590410E1
4.102261792E0,2.840193787E0,-4.440066833E0,8.979826355E0,1.041240489E1
4.112219792E0,3.208877106E0,-4.559219055E0,8.525072021E0,1.018627624E1
4.122178792E0,3.676354980E0,-4.590953064E0,8.182883606E0,1.007730222E1
4.132137792E0,4.090992737E0,-4.560266876E0,8.067174225E0,1.012973620E1
4.142096792E0,4.494553528E0,-4.353846130E0,8.222551117E0,1.033282800E1
4.152055792E0,4.857698364E0,-4.076921997E0,8.377179565E0,1.050693408E1
4.162014792E0,4.929249573E0,-3.864214325E0,8.749156036E0,1.075999001E1
4.171972792E0,4.862638092E0,-3.703149261E0,9.086853790E0,1.095123169E1
4.181931792E0,5.103636932E0,-3.550915833E0,9.187145233E0,1.109322995E1
4.191890792E0,5.531147919E0,-3.355572052E0,9.157955933E0,1.121256518E1
4.201849792E0,5.911057892E0,-3.090323639E0,9.275910645E0,1.142511374E1
4.211808792E0,6.111640778E0,-2.770588531E0,9.596394196E0,1.170978631E1
4.221767792E0,6.158193970E0,-2.316582642E0,9.612410889E0,1.164853429E1
4.231725792E0,6.166875916E0,-1.946552124E0,9.448052673E0,1.144924116E1
4.241684792E0,6.156697083E0,-1.730551300E0,9.336684265E0,1.131695188E1
4.251643792E0,5.921685791E0,-1.741777954E0,9.255253601E0,1.112474145E1
4.261602792E0,5.622607727E0,-1.765129395E0,9.414372711E0,1.110674628E1
4.271561792E0,5.266498260E0,-1.517843628E0,1.005399261E1,1.145087860E1
4.281520792E0,5.197042694E0,-1.115330658E0,1.084180435E1,1.207468165E1
4.291478792E0,5.531596985E0,-6.896159363E-1,1.138517441E1,1.267660568E1
4.301437792E0,5.895490265E0,-1.565744019E-1,1.154010223E1,1.295975619E1
4.311396792E0,6.068231049E0,2.210902405E-1,1.137035522E1,1.289020120E1
4.321355792E0,5.931864624E0,4.357438660E-1,1.125988495E1,1.273428049E1
4.331314792E0,5.678890686E0,5.661227417E-1,1.131631760E1,1.267396301E1
4.341273792E0,5.458698578E0,6.012995911E-1,1.149669250E1,1.274099250E1
4.351231792E0,5.348377991E0,6.322851562E-1,1.188902664E1,1.305196867E1
4.361190792E0,5.270240479E0,7.921527100E-1,1.200787949E1,1.313743165E1
4.371149792E0,5.251679077E0,9.033714294E-1,1.169308411E1,1.285007506E1
4.381108792E0,5.025200043E0,1.022972717E0,1.124267075E1,1.235705281E1
4.391067792E0,4.600533142E0,1.087787933E0,1.092577972E1,1.190465667E1
4.401026792E0,4.198918304E0,1.193617859E0,1.078327606E1,1.163334351E1
4.410984792E0,3.941753082E0,1.338217163E0,1.074750046E1,1.152549386E1
4.420943792E0,3.610192566E0,1.584305420E0,1.086201233E1,1.155538082E1
4.430902792E0,3.217559052E0,1.791624298E0,1.110495712E1,1.169968703E1
4.440861792E0,2.761307831E0,1.748963013E0,1.134760254E1,1.180897015E1
4.450820792E0,1.818268890E0,1.609752502E0,1.159369080E1,1.184529743E1
4.460779792E0,8.297245789E-1,1.703158264E0,1.182301392E1,1.197384019E1
4.470737792E0,4.014651489E-1,1.056802368E0,1.152962402E1,1.158491414E1
4.480696792E0,-5.700146484E-1,1.079405365E0,1.090841583E1,1.097650075E1
4.490655792E0,-1.310225372E0,1.015787659E0,1.049377808E1,1.062393022E1
4.500614792E0,-1.684746552E0,7.798782349E-1,1.033989807E1,1.050524027E1
4.510573792E0,-1.903591461E0,7.170089722E-1,1.011925690E1,1.032168215E1
4.520532792E0,-1.738634491E0,1.001267853E0,9.872420197E0,1.007422790E1
4.530490792E0,-1.703906708E0,1.391206970E0,9.939181366E0,1.017968964E1
4.540449792E0,-1.763782196E0,1.685794373E0,1.024035507E1,1.052699873E1
4.550408792E0,-1.856738892E0,1.546134796E0,1.049332901E1,1.076791372E1
4.560367792E0,-2.083217926E0,1.281036072E0,1.087234085E1,1.114399596E1
4.570326792E0,-2.561323700E0,1.150806885E0,1.109462860E1,1.144445365E1
4.580285792E0,-3.223845978E0,9.979747009E-1,1.118309464E1,1.168121321E1
4.590243792E0,-3.953428802E0,7.318281555E-1,1.094508957E1,1.166019543E1
4.600202792E0,-4.539759521E0,4.905299377E-1,1.056323364E1,1.150790776E1
4.610161792E0,-4.782105560E0,4.333488464E-1,9.953252106E0,1.105095255E1
4.620120792E0,-4.354744263E0,6.990463257E-1,9.256900177E0,1.025390971E1
4.630079792E0,-3.580703888E0,1.202150116E0,8.806337128E0,9.582180276E0
4.640038792E0,-2.639910278E0,1.366957397E0,9.024583282E0,9.501621032E0
4.649996792E0,-1.964664459E0,1.219214630E0,9.520801392E0,9.797553260E0
4.659955792E0,-2.041155396E0,8.536747742E-1,9.877359924E0,1.012212009E1
4.669914792E0,-2.792293396E0,2.483335876E-1,9.900112610E0,1.028935380E1
4.679873792E0,-3.833079071E0,-3.026705933E-1,9.815987549E0,1.054218745E1
4.689832792E0,-4.757556610E0,-8.325686646E-1,1.001342697E1,1.111738437E1
4.699791792E0,-5.380860443E0,-1.290915527E0,1.059691360E1,1.195469364E1
4.709749792E0,-5.712121582E0,-1.489552460E0,1.133832184E1,1.278298250E1
4.719708792E0,-5.773344269E0,-1.612147522E0,1.182046921E1,1.325345298E1
4.729667792E0,-5.804329834E0,-1.919458466E0,1.198377960E1,1.345308660E1
4.739626792E0,-5.920937347E0,-2.302062836E0,1.192150909E1,1.350849257E1
4.749585792E0,-6.032605133E0,-2.715503082E0,1.161494659E1,1.336687196E1
4.759544792E0,-6.107449493E0,-3.039279785E0,1.101020416E1,1.295232630E1
4.769502792E0,-6.156697083E0,-3.284619598E0,1.043031006E1,1.254930328E1
4.779461792E0,-6.159541168E0,-3.507655792E0,1.001267853E1,1.226773524E1
4.789420792E0,-6.151158600E0,-3.660188599E0,9.542206879E0,1.192843011E1
4.799379792E0,-6.058650970E0,-3.871399384E0,9.282946014E0,1.174172353E1
4.809338792E0,-6.005062408E0,-4.212539978E0,9.288035431E0,1.183528072E1
4.819297792E0,-6.030060425E0,-4.542603607E0,9.411528625E0,1.206539462E1
4.829255792E0,-6.137387238E0,-4.956343231E0,9.413175201E0,1.228172332E1
4.839214792E0,-6.429429932E0,-5.513185272E0,9.491312714E0,1.272076248E1
4.849173792E0,-6.904092865E0,-5.999673615E0,9.570048981E0,1.323814259E1
4.859132792E0,-7.232958984E0,-6.437962189E0,9.495803375E0,1.356220242E1
4.869091792E0,-7.178322601E0,-6.943011932E0,9.507928162E0,1.378892411E1
4.879050792E0,-6.858587494E0,-7.340884552E0,9.342222748E0,1.371881680E1
4.889008792E0,-6.323899384E0,-7.640860748E0,9.176217957E0,1.351212168E1
4.898967792E0,-5.650599518E0,-7.800877991E0,9.204060059E0,1.332282605E1
4.908926792E0,-4.884642334E0,-7.660020905E0,9.264833679E0,1.297585427E1
4.918885792E0,-4.049229584E0,-7.347919922E0,9.313183136E0,1.253489400E1
4.928844792E0,-3.263363800E0,-7.002737732E0,9.405241699E0,1.217154265E1
4.938803792E0,-2.548600159E0,-6.768025818E0,9.405840454E0,1.186471116E1
4.948761792E0,-1.750010834E0,-6.654861145E0,9.336085510E0,1.159793979E1
4.958720792E0,-1.006506958E0,-6.585555267E0,9.196126556E0,1.135567427E1
4.968679792E0,-3.918850708E-1,-6.644233246E0,9.115743713E0,1.128699219E1
4.978638792E0,2.026785278E-1,-6.596033478E0,9.055568848E0,1.120500171E1
4.988597792E0,8.520281982E-1,-6.460864563E0,9.050928497E0,1.115293816E1
4.998556792E0,1.520088959E0,-6.409521332E0,9.009614410E0,1.116090435E1
5.008514792E0,2.102527771E0,-6.317462769E0,8.896150360E0,1.111181579E1
5.018473792E0,2.523602142E0,-6.165079651E0,9.026229858E0,1.121827083E1
5.028432792E0,3.200344849E0,-5.952072601E0,9.449848938E0,1.161761681E1
5.038391792E0,4.109554138E0,-5.545667725E0,9.629026337E0,1.184740537E1
5.048350792E0,4.906945953E0,-4.959935760E0,9.713899841E0,1.195988844E1
5.058309792E0,5.413642273E0,-4.482129364E0,1.005174728E1,1.226517956E1
5.068267792E0,5.814808044E0,-4.004622345E0,1.043869263E1,1.260219411E1
5.078226792E0,6.392157440E0,-3.598217468E0,1.053000275E1,1.283307459E1
5.088185792E0,6.863527222E0,-3.252436523E0,1.056502991E1,1.301177183E1
5.098144792E0,7.034920807E0,-2.801873474E0,1.068867279E1,1.309917294E1
5.108103792E0,7.076833649E0,-2.446362762E0,1.089988358E1,1.322398303E1
5.118062792E0,6.997798004E0,-2.067500610E0,1.120150635E1,1.336852573E1
5.128020792E0,7.090006256E0,-1.586700439E0,1.118593872E1,1.333832943E1
5.137979792E0,7.399712219E0,-1.185085602E0,1.113399673E1,1.342110473E1
5.147938792E0,7.674091644E0,-8.207432556E-1,1.124805954E1,1.364126627E1
5.157897792E0,7.740703125E0,-6.325845337E-1,1.145043869E1,1.383586623E1
5.167856792E0,7.839048615E0,-4.631369019E-1,1.153366562E1,1.395315812E1
5.177815792E0,7.524103546E0,-2.888992310E-2,1.167167862E1,1.388672210E1
5.187773792E0,7.003037109E0,1.411564636E-1,1.212613358E1,1.400376983E1
5.197732792E0,6.506070557E0,2.254312134E-1,1.247116608E1,1.406804026E1
5.207691792E0,6.201753387E0,4.266128540E-1,1.225112366E1,1.373804114E1
5.217650792E0,6.255940704E0,4.540058899E-1,1.178903458E1,1.335381038E1
5.227609792E0,6.165977783E0,3.471281433E-1,1.145148651E1,1.301062348E1
5.237568792E0,5.799090729E0,1.727407837E-1,1.141062149E1,1.280084276E1
5.247526792E0,5.416636047E0,-1.682501221E-1,1.147274231E1,1.268826506E1
5.257485792E0,4.912035370E0,-3.885919189E-1,1.177586197E1,1.276518783E1
5.267444792E0,4.184548187E0,-3.258723450E-1,1.224753113E1,1.294676234E1
5.277403792E0,3.663631439E0,-2.597099304E-1,1.228645020E1,1.282366964E1
5.287362792E0,3.581602020E0,-3.085084534E-1,1.179606995E1,1.233167939E1
5.297321792E0,3.556753693E0,-3.972738647E-1,1.087144272E1,1.144537418E1
5.307279792E0,3.281625824E0,-6.813830566E-1,1.006731491E1,1.061056928E1
5.317238792E0,2.521356812E0,-9.822573853E-1,9.792785797E0,1.015976001E1
5.327197792E0,1.314716034E0,-1.296753387E0,1.021475830E1,1.038033404E1
5.337156792E0,-7.439529419E-2,-1.395697632E0,1.111753098E1,1.120504358E1
5.347115792E0,-9.728269958E-1,-1.318607941E0,1.209110641E1,1.220163815E1
5.357074792E0,-5.225633240E-1,-1.231339417E0,1.132649643E1,1.140520892E1
5.367032792E0,-1.363664246E0,-7.927514648E-1,1.100840790E1,1.112083987E1
5.376991625E0,-1.065634003E0,-4.331991577E-1,1.083237396E1,1.089328064E1
5.386950625E0,-3.656895447E-1,-5.812413025E-1,9.750124512E0,9.774277379E0
5.396909625E0,-3.399430847E-1,-6.286926270E-3,8.630452881E0,8.637147547E0
5.406868625E0,-1.090182953E0,1.093176727E0,8.461154938E0,8.600853278E0
5.416827625E0,-1.343605957E0,1.714684296E0,9.474697266E0,9.721898347E0
5.426785625E0,-1.077459412E0,2.143392792E0,1.006851242E1,1.035036201E1
5.436744625E0,-9.957293701E-1,2.610720978E0,1.017074982E1,1.054758232E1
5.446703625E0,-9.307644653E-1,2.698139191E0,1.014126114E1,1.053524822E1
5.456662625E0,-1.179547119E0,2.728376312E0,1.040800644E1,1.082413815E1
5.466621625E0,-1.617087250E0,2.834655304E0,1.093371323E1,1.141036050E1
5.476580625E0,-2.029928741E0,2.862497406E0,1.106978027E1,1.161268864E1
5.486538625E0,-2.498604126E0,2.764151917E0,1.064720901E1,1.128036428E1
5.496497625E0,-2.954406281E0,2.313588867E0,9.968370667E0,1.065127334E1
5.506456625E0,-3.387006683E0,1.733844452E0,9.244925079E0,9.997333173E0
5.516415625E0,-3.842659149E0,1.391206970E0,8.528814240E0,9.457386452E0
5.526374625E0,-4.178410950E0,9.472302246E-1,8.314310303E0,9.353294552E0
5.536333625E0,-4.431684265E0,9.565109253E-2,8.723110199E0,9.784765000E0
5.546291625E0,-5.016667786E0,-6.271957397E-1,9.169332275E0,1.047076810E1
5.556250625E0,-5.664520569E0,-7.952961731E-1,9.654623108E0,1.122189987E1
5.566209625E0,-6.124364319E0,-7.882608032E-1,1.011656250E1,1.185217407E1
5.576168625E0,-6.383924561E0,-9.125024414E-1,1.048195267E1,1.230684709E1
5.586127625E0,-6.351442108E0,-1.215921478E0,1.064451462E1,1.245491764E1
5.596086625E0,-6.390660553E0,-1.824705505E0,1.093476105E1,1.279605766E1
5.606044625E0,-6.663393402E0,-2.369871826E0,1.083716400E1,1.294068111E1
5.616003625E0,-6.739734650E0,-2.642305298E0,1.053838531E1,1.278527925E1
5.625962625E0,-6.499184875E0,-2.814297638E0,1.034992722E1,1.254115898E1
5.635921625E0,-5.945186920E0,-2.732567596E0,1.018107834E1,1.210233570E1
5.645880625E0,-5.403313751E0,-2.784060516E0,1.040291702E1,1.204854659E1
5.655839625E0,-5.323230286E0,-3.059188385E0,1.099448685E1,1.259262305E1
5.665797625E0,-5.509592743E0,-3.434458008E0,1.205727676E1,1.369412418E1
5.675756625E0,-5.897585907E0,-3.763473816E0,1.255499176E1,1.437265017E1
5.685715625E0,-6.318959656E0,-3.924987946E0,1.247880020E1,1.452774022E1
5.695674625E0,-6.676715698E0,-4.039499817E0,1.204440353E1,1.435143713E1
5.705633625E0,-6.765181732E0,-4.170477448E0,1.138128250E1,1.388143211E1
5.715592625E0,-6.505322113E0,-4.315226440E0,1.065379532E1,1.320771554E1
5.725550625E0,-6.009702759E0,-4.504732361E0,1.006985962E1,1.256229333E1
5.735509625E0,-5.293891296E0,-4.610412598E0,9.681716766E0,1.195896438E1
5.745468625E0,-4.539160767E0,-4.626429291E0,9.516310730E0,1.151381771E1
5.755427625E0,-4.021237793E0,-4.560416565E0,9.310937805E0,1.112031094E1
5.765386625E0,-3.788471832E0,-4.472698975E0,9.067543945E0,1.079712499E1
5.775345625E0,-3.646417236E0,-4.407285004E0,9.062753906E0,1.071699716E1
5.785303625E0,-3.562591553E0,-4.270319824E0,9.267977142E0,1.080847308E1
5.795262625E0,-3.335064697E0,-4.244273987E0,9.499096527E0,1.092562827E1
5.805221625E0,-2.944227448E0,-4.385729828E0,9.723629608E0,1.106580653E1
5.815180625E0,-2.561772766E0,-4.522695007E0,9.867480469E0,1.115278533E1
5.825139625E0,-1.924996948E0,-4.537364502E0,1.001372635E1,1.116100377E1
5.835098625E0,-1.190923462E0,-4.457131348E0,9.992320862E0,1.100594361E1
5.845056625E0,-3.830534363E-1,-4.373455353E0,9.793833618E0,1.073280106E1
5.855015625E0,5.254074097E-1,-4.278552704E0,9.632020111E0,1.055262420E1
5.864974625E0,1.090781708E0,-4.249513092E0,9.538015594E0,1.049866219E1
5.874933625E0,1.284927979E0,-4.286186829E0,9.581724701E0,1.057505961E1
5.884892625E0,1.309925995E0,-4.308041382E0,9.682764587E0,1.067853252E1
5.894851625E0,1.454525299E0,-4.456382904E0,9.715396729E0,1.078721123E1
5.904809625E0,1.834285583E0,-4.683161316E0,9.572144623E0,1.081307339E1
5.914768625E0,2.192341003E0,-4.861739960E0,9.388775940E0,1.079777700E1
5.924727625E0,2.449655914E0,-4.963378601E0,9.376501465E0,1.088828366E1
5.934686625E0,2.649789734E0,-5.118156738E0,9.449998627E0,1.106884764E1
5.944645625E0,2.962339783E0,-5.082081757E0,9.554481354E0,1.122012147E1
5.954604625E0,3.331322479E0,-4.855303345E0,9.604776764E0,1.126602932E1
5.964562625E0,3.907324677E0,-4.568200378E0,9.510173492E0,1.125073512E1
5.974521625E0,4.428840179E0,-4.141886902E0,9.404493256E0,1.118992162E1
5.984480625E0,4.727918243E0,-3.907624054E0,9.342222748E0,1.117586071E1
5.994439625E0,5.052742767E0,-3.968697052E0,9.230704651E0,1.124662946E1
6.004398625E0,5.251230011E0,-4.075125732E0,9.311985626E0,1.144094151E1
6.014357625E0,5.396727448E0,-4.014202423E0,9.652677155E0,1.176489118E1
6.024315625E0,5.493276672E0,-3.744613037E0,1.000878662E1,1.201557427E1
6.034274625E0,5.544769592E0,-3.326682129E0,1.031504974E1,1.217421599E1
6.044233625E0,5.793103180E0,-2.955753479E0,1.036190231E1,1.223378693E1
6.054192625E0,5.923631744E0,-2.524200897E0,9.989626465E0,1.188501746E1
6.064151625E0,6.010900269E0,-2.304906921E0,9.616302795E0,1.157224254E1
6.074110625E0,6.026767273E0,-2.265688477E0,9.475595398E0,1.145609777E1
6.084068625E0,6.207441559E0,-2.209405518E0,9.658365326E0,1.169178448E1
6.094027625E0,6.362369385E0,-2.018552399E0,9.982591095E0,1.200859788E1
6.103986625E0,6.297853546E0,-1.463656311E0,1.031804352E1,1.217650488E1
6.113945625E0,6.026168518E0,-8.443940735E-1,1.049512527E1,1.213158534E1
6.123904625E0,5.936954041E0,-2.704875183E-1,1.056847275E1,1.212490012E1
6.133863625E0,5.983956299E0,1.930984497E-1,1.050725006E1,1.209327598E1
6.143821625E0,6.081553345E0,3.987707520E-1,1.027523254E1,1.194674487E1
6.153780625E0,6.020330658E0,5.131329346E-1,1.000848724E1,1.169091543E1
6.163739625E0,5.832171936E0,4.703219604E-1,9.999206543E0,1.158531673E1
6.173698625E0,5.604645081E0,5.929170227E-1,1.029708710E1,1.173855186E1
6.183657625E0,5.478457489E0,8.240364075E-1,1.073253159E1,1.207806966E1
6.193616625E0,5.387895813E0,9.607022095E-1,1.100451599E1,1.229031091E1
6.203574625E0,5.172942810E0,1.166524200E0,1.104059097E1,1.224805148E1
6.213533625E0,4.800217896E0,1.405277710E0,1.094598770E1,1.203459779E1
6.223492625E0,4.391118622E0,1.568288727E0,1.071007828E1,1.168106284E1
6.233451625E0,3.926784210E0,1.543141022E0,1.052626053E1,1.134032976E1
6.243410625E0,3.548969879E0,1.362616425E0,1.047177383E1,1.114046489E1
6.253369625E0,3.042572937E0,1.008452911E0,1.069421127E1,1.116424570E1
6.263327625E0,2.277214508E0,5.786965942E-1,1.094029953E1,1.118976092E1
6.273286625E0,1.360371094E0,3.080593872E-1,1.106169708E1,1.114928932E1
6.283245625E0,5.195695496E-1,-1.197509766E-3,1.120958954E1,1.122162428E1
6.293204625E0,-4.234693909E-1,-2.671943665E-1,1.151929550E1,1.153017294E1
6.303163625E0,-1.249451752E0,-2.751278687E-1,1.172197403E1,1.179158599E1
6.313122625E0,-2.013762360E0,-1.242416382E-2,1.157617722E1,1.175003286E1
6.323080625E0,-2.445015564E0,1.113684082E-1,1.120135666E1,1.146563976E1
6.333039625E0,-2.930156708E0,-8.981323242E-2,1.114731903E1,1.152634401E1
6.342998625E0,-3.287613373E0,-2.207908630E-1,1.111004654E1,1.158836850E1
6.352957625E0,-3.409609680E0,-1.255888367E-1,1.086365891E1,1.138684748E1
6.362916625E0,-3.220552826E0,2.561174011E-1,1.048509613E1,1.097154490E1
6.372875000E0,-2.832110596E0,6.631210327E-1,1.022643402E1,1.063205214E1
6.382833000E0,-2.584226074E0,1.016236725E0,1.027164001E1,1.064037359E1
6.392792000E0,-2.559527435E0,1.173559570E0,1.060754150E1,1.097489679E1
6.402751000E0,-2.648891602E0,9.852511597E-1,1.107861191E1,1.143341543E1
6.412710000E0,-2.896626434E0,6.481521606E-1,1.141077118E1,1.179051504E1
6.422669000E0,-3.204536133E0,3.712280273E-1,1.140178986E1,1.184937441E1
6.432628000E0,-3.396736450E0,1.049317932E-1,1.116842514E1,1.167401171E1
6.442586000E0,-3.501967621E0,-1.923500061E-1,1.084165466E1,1.139483443E1
6.452545000E0,-3.559597778E0,-1.444496155E-1,1.061951660E1,1.120114882E1
6.462504000E0,-3.517235870E0,1.529818726E-1,1.030651749E1,1.089121914E1
6.472463000E0,-3.386707306E0,2.761756897E-1,1.003363495E1,1.059338896E1
6.482422000E0,-3.254382477E0,-1.058299255E-1,1.015727783E1,1.066641919E1
6.492381000E0,-3.253334656E0,-6.759942627E-1,1.042357407E1,1.094038623E1
6.502339000E0,-3.484603729E0,-8.690927124E-1,1.055769516E1,1.115180310E1
6.512298000E0,-3.708987122E0,-1.141526184E0,1.085916824E1,1.153174759E1
6.522257000E0,-4.086202698E0,-1.311572571E0,1.090437424E1,1.171847484E1
6.532216000E0,-4.490212555E0,-1.247056732E0,1.070498886E1,1.167535635E1
6.542175000E0,-4.975503387E0,-1.145268402E0,1.044213547E1,1.162348772E1
6.552134000E0,-5.104535065E0,-1.124761047E0,1.041369461E1,1.165188401E1
6.562092000E0,-5.008285217E0,-1.125958557E0,1.026939468E1,1.148090461E1
6.572051000E0,-4.555925903E0,-1.137334900E0,1.009994705E1,1.113817409E1
6.582010000E0,-4.094585266E0,-1.095571747E0,9.935139771E0,1.080152342E1
6.591969000E0,-3.966302032E0,-1.030157776E0,9.815538483E0,1.063661471E1
6.601928000E0,-4.154011688E0,-1.278641052E0,1.013452515E1,1.102720889E1
6.611887000E0,-4.699477386E0,-1.676813049E0,1.064376617E1,1.175527746E1
6.621845000E0,-5.310207367E0,-2.053579559E0,1.111408813E1,1.248753164E1
6.631804000E0,-5.625751190E0,-2.640509033E0,1.144415176E1,1.302267154E1
6.641763000E0,-5.663023682E0,-3.229085083E0,1.134625534E1,1.308565390E1
6.651722000E0,-5.367837524E0,-3.508553925E0,1.095451996E1,1.269350770E1
6.661681000E0,-4.804858246E0,-3.511248322E0,1.037791901E1,1.196314049E1
6.671640000E0,-4.372706909E0,-3.445085907E0,9.807305603E0,1.127707523E1
6.681598000E0,-4.052971802E0,-3.627406769E0,9.608369293E0,1.104107879E1
6.691557000E0,-3.688330078E0,-3.892355804E0,9.721234589E0,1.110209955E1
6.701516000E0,-3.513643341E0,-3.892505493E0,9.763446808E0,1.108251696E1
6.711475000E0,-3.241209869E0,-4.005071411E0,9.861492920E0,1.112632379E1
6.721434000E0,-3.032693481E0,-4.140539703E0,9.788893890E0,1.105277080E1
6.731393000E0,-2.827021179E0,-4.029320984E0,9.552984467E0,1.074648727E1
6.741352000E0,-2.577340393E0,-3.967649231E0,9.474098511E0,1.058978123E1
6.751310000E0,-2.208208008E0,-4.030967560E0,9.707612915E0,1.074069972E1
6.761269000E0,-1.612297211E0,-4.048481140E0,9.761051788E0,1.068961336E1
6.771228000E0,-8.563691711E-1,-4.089196472E0,9.576036530E0,1.044774481E1
6.781187000E0,-1.326242065E-1,-4.103865967E0,9.329948273E0,1.019349007E1
6.791146000E0,5.313949585E-1,-4.004023590E0,9.139095154E0,9.991878990E0
6.801104000E0,9.794132996E-1,-3.943848724E0,9.234147491E0,1.008873991E1
6.811063000E0,1.195863190E0,-4.112248535E0,9.618997192E0,1.052928221E1
6.821022000E0,1.120869141E0,-4.174219666E0,9.785301361E0,1.069731649E1
6.830981000E0,9.580078125E-1,-4.133953400E0,9.725575562E0,1.061103999E1
6.840940000E0,8.783734131E-1,-4.284689941E0,9.727671204E0,1.066572524E1
6.850899000E0,1.172811127E0,-4.440964966E0,9.620045013E0,1.066034342E1
6.860857000E0,1.948647766E0,-4.536616058E0,9.519154816E0,1.072345195E1
6.870816000E0,2.911146240E0,-4.504582672E0,9.451794891E0,1.086749576E1
6.880775000E0,3.453767853E0,-4.443509674E0,9.361532593E0,1.092298417E1
6.890734000E0,3.567231903E0,-4.494254150E0,9.170978851E0,1.081805514E1
6.900693000E0,3.480861511E0,-4.659809875E0,8.953481140E0,1.067684642E1
6.910652000E0,3.480412445E0,-4.943470001E0,8.793164520E0,1.067103129E1
6.920611000E0,3.724405060E0,-5.149591370E0,8.616531830E0,1.070673177E1
6.930569000E0,4.299958191E0,-5.323978729E0,8.615783386E0,1.100300474E1
6.940528000E0,4.821324005E0,-5.243895264E0,8.789871368E0,1.131394897E1
6.950487000E0,5.117258606E0,-5.084776154E0,9.131011963E0,1.163686657E1
6.960446000E0,5.048401794E0,-4.845573578E0,9.452543335E0,1.176080437E1
6.970405000E0,5.129832458E0,-4.561314697E0,9.720186768E0,1.189969763E1
6.980363000E0,5.464985504E0,-4.127067719E0,9.737550659E0,1.190456414E1
6.990322000E0,5.842051392E0,-3.731889496E0,9.695637817E0,1.191897464E1
7.000281000E0,6.180048523E0,-3.522325287E0,9.596843262E0,1.194567603E1
7.010240000E0,6.661148071E0,-3.212769012E0,9.341773682E0,1.191476034E1
7.020199000E0,7.097790070E0,-2.882855072E0,9.162596283E0,1.194330975E1
7.030158000E0,7.348818054E0,-2.527643738E0,9.204060059E0,1.204611270E1
7.040116000E0,7.535330200E0,-2.158960419E0,9.493707733E0,1.231149048E1
7.050075000E0,7.719597015E0,-1.822160797E0,9.601932678E0,1.245429882E1
7.060034000E0,7.815697174E0,-1.479074249E0,9.535321198E0,1.241753330E1
7.069993000E0,7.576344910E0,-1.150357819E0,9.671388245E0,1.233937097E1
7.079952000E0,7.324718170E0,-7.249424744E-1,1.032537827E1,1.268031838E1
7.089911000E0,7.195686493E0,-4.520599365E-2,1.110360992E1,1.323140586E1
7.099870000E0,7.156318359E0,7.012916565E-1,1.155447235E1,1.360920768E1
7.109828000E0,7.106472015E0,1.082997894E0,1.203153030E1,1.401543971E1
7.119787000E0,7.032675476E0,1.495689697E0,1.205473206E1,1.403610263E1
7.129746000E0,7.000791779E0,1.737586670E0,1.166778671E1,1.371741739E1
7.139705000E0,6.890321503E0,1.733096008E0,1.144864243E1,1.347410723E1
7.149664000E0,6.550977173E0,1.761237488E0,1.145433060E1,1.331236075E1
7.159623000E0,6.080355835E0,1.731748810E0,1.141361526E1,1.304761643E1
7.169581000E0,5.548212433E0,1.647773438E0,1.126647125E1,1.266614357E1
7.179540000E0,4.992118835E0,1.617686005E0,1.106409210E1,1.224550091E1
7.189499000E0,4.716691589E0,1.421593781E0,1.089913513E1,1.196073806E1
7.199458000E0,4.587659912E0,1.252744904E0,1.066142944E1,1.167399122E1
7.209417000E0,4.275708618E0,1.315165100E0,1.033914963E1,1.126540538E1
7.219376000E0,3.851790161E0,1.451980591E0,1.018452118E1,1.098494455E1
7.229334000E0,3.149600372E0,1.477577362E0,1.036145325E1,1.092990992E1
7.239293000E0,2.297871552E0,1.653910675E0,1.066621948E1,1.103557304E1
7.249252000E0,1.523831177E0,1.791175232E0,1.114178055E1,1.138725796E1
7.259211000E0,8.719367981E-1,1.769470367E0,1.156854309E1,1.173552250E1
7.269170000E0,3.487747192E-1,2.119741974E0,1.171808212E1,1.191337058E1
7.279129000E0,1.034349060E-1,2.625839539E0,1.173709259E1,1.202767952E1
7.289087000E0,9.610015869E-2,2.921474762E0,1.172496780E1,1.208383714E1
7.299046000E0,-7.783813477E-2,2.970422974E0,1.157497971E1,1.195029818E1
7.309005000E0,-5.288502502E-1,2.500849457E0,1.167527115E1,1.195181522E1
7.318964000E0,-1.272803192E0,1.834584961E0,1.200129318E1,1.220724244E1
7.328923000E0,-2.154769135E0,1.522483978E0,1.206191711E1,1.234709812E1
7.338882000E0,-2.583028564E0,1.387614441E0,1.190085205E1,1.225674467E1
7.348840000E0,-2.503394165E0,1.215472412E0,1.159413986E1,1.192344056E1
7.358799000E0,-2.483186188E0,1.078656921E0,1.115974319E1,1.148344820E1
7.368758000E0,-2.512824554E0,9.258247375E-1,1.076202026E1,1.109019922E1
7.378717417E0,-2.697839813E0,8.735833740E-1,1.033974838E1,1.072156165E1
7.388676417E0,-2.968926086E0,8.824150085E-1,1.011311966E1,1.057678437E1
7.398635417E0,-3.315605164E0,9.205856323E-1,9.880503387E0,1.046255527E1
7.408593417E0,-3.579955444E0,8.412506104E-1,9.520052948E0,1.020564509E1
7.418552417E0,-3.675905914E0,4.125421143E-1,9.180858307E0,9.898011646E0
7.428511417E0,-3.812122650E0,-2.330653381E-1,8.776998138E0,9.571953556E0
7.438470417E0,-4.015399933E0,-6.379733276E-1,8.710985413E0,9.613101136E0
7.448429417E0,-4.030368805E0,-1.326391754E0,9.337582397E0,1.025639473E1
7.458388417E0,-4.262236633E0,-2.004032593E0,1.016625916E1,1.120426852E1
7.468346417E0,-4.658612366E0,-1.809586945E0,1.080977097E1,1.190917388E1
7.478305417E0,-4.889731750E0,-1.487756195E0,1.135523666E1,1.245248147E1
7.488264417E0,-4.886139221E0,-1.035995636E0,1.177256882E1,1.278831576E1
7.498223417E0,-4.449497223E0,-6.685098267E-1,1.186073547E1,1.268550263E1
7.508182417E0,-4.005520477E0,-6.321354675E-1,1.181597855E1,1.249244326E1
7.518141417E0,-4.027674408E0,-1.064735870E0,1.166464325E1,1.238627166E1
7.528099417E0,-4.220922546E0,-1.670077057E0,1.136331985E1,1.223643668E1
7.538058417E0,-4.462819519E0,-2.377056885E0,1.079555054E1,1.192103472E1
7.548017417E0,-4.878654785E0,-3.215613098E0,1.025247986E1,1.180062640E1
7.557976417E0,-4.963677979E0,-3.708687744E0,9.622589722E0,1.144494197E1
7.567935417E0,-5.310656433E0,-4.197271729E0,1.000115250E1,1.207655634E1
7.577894417E0,-5.983956299E0,-4.232598267E0,1.111842911E1,1.331698490E1
7.587852417E0,-6.223458252E0,-4.202660522E0,1.243299545E1,1.452491528E1
7.597811417E0,-6.065386963E0,-3.973337402E0,1.298564621E1,1.487290613E1
7.607770417E0,-5.620811462E0,-3.652105408E0,1.324445801E1,1.484409187E1
7.617729417E0,-4.975353699E0,-3.785777435E0,1.276769943E1,1.421620217E1
7.627688417E0,-4.157155151E0,-4.096231842E0,1.179127991E1,1.315657007E1
7.637647417E0,-3.605701904E0,-4.339326324E0,1.075154205E1,1.214193130E1
7.647605417E0,-3.586092682E0,-4.544699249E0,9.844129028E0,1.142021140E1
7.657564417E0,-3.129392395E0,-4.806055756E0,9.250463562E0,1.088404083E1
7.667523417E0,-1.985620880E0,-4.971012726E0,8.535999298E0,1.007556161E1
7.677482417E0,-1.050814819E0,-4.848267975E0,7.979157257E0,9.395576868E0
7.687441417E0,-3.237767029E-1,-4.515659637E0,7.818541260E0,9.034688746E0
7.697400417E0,8.891510010E-2,-3.936663666E0,8.215216370E0,9.110159533E0
7.707358417E0,1.532812500E-1,-3.361709290E0,9.915680237E0,1.047116512E1
7.717317417E0,7.858657837E-1,-3.200195160E0,1.189980423E1,1.234763843E1
7.727276417E0,2.112706604E0,-4.015549622E0,1.137709122E1,1.224852532E1
7.737235417E0,2.541265411E0,-4.426145782E0,9.172924805E0,1.049720657E1
7.747194417E0,9.503736877E-1,-4.500541077E0,8.262518005E0,9.456600019E0
7.757153417E0,-1.095721436E-1,-4.385430450E0,9.540560303E0,1.050077603E1
7.767112417E0,1.250349884E0,-4.575984192E0,1.096035782E1,1.194288280E1
7.777070417E0,2.168839874E0,-4.027674408E0,1.100795883E1,1.192062017E1
7.787029417E0,2.929408264E0,-3.123404846E0,1.013632141E1,1.100373129E1
7.796988417E0,3.985761566E0,-2.495011597E0,9.602381744E0,1.069191813E1
7.806947417E0,4.567152557E0,-2.152374115E0,9.390123138E0,1.066142624E1
7.816906417E0,4.577481079E0,-2.300266571E0,9.621242523E0,1.090013151E1
7.826865417E0,5.202581177E0,-2.418221283E0,9.839338989E0,1.138978651E1
7.836823417E0,4.744384003E0,-2.532284088E0,9.284293213E0,1.072938688E1
7.846782417E0,3.814218292E0,-3.521876221E0,8.897647247E0,1.030145620E1
7.856741417E0,3.883673859E0,-3.626209259E0,8.622968445E0,1.012856856E1
7.866700417E0,5.026846619E0,-2.568359070E0,8.827592926E0,1.047817027E1
7.876659417E0,5.935307465E0,-1.427132263E0,9.433233490E0,1.123612368E1
7.886618417E0,6.197412415E0,-5.306465149E-1,1.001851639E1,1.179237792E1
7.896576417E0,6.329288177E0,-3.951782227E-2,1.014200958E1,1.195499096E1
7.906535417E0,6.067632294E0,1.459465027E-1,9.818831635E0,1.154326283E1
7.916494417E0,5.862109680E0,3.459306335E-1,9.691147156E0,1.133147524E1
7.926453417E0,6.444698181E0,5.625302124E-1,9.455387421E0,1.145665423E1
7.936412417E0,6.400240631E0,6.626719666E-1,8.924291840E0,1.100205431E1
7.946371417E0,6.121370544E0,7.481442261E-1,8.895401917E0,1.082400445E1
7.956330417E0,5.949527893E0,1.202599182E0,9.235494690E0,1.105158310E1
7.966288417E0,6.105054474E0,1.889820099E0,9.656269684E0,1.157957920E1
7.976247417E0,6.576274567E0,2.842289429E0,1.025472519E1,1.250941186E1
7.986206417E0,6.732250214E0,3.673510895E0,1.037163208E1,1.289917157E1
7.996165417E0,6.694678345E0,3.836970978E0,1.009336075E1,1.270499884E1
8.006124417E0,6.725214844E0,3.876339111E0,9.481283569E0,1.225354062E1
8.016083417E0,6.548282776E0,3.909270630E0,8.630752258E0,1.151747753E1
8.026041417E0,6.264173584E0,3.891906738E0,8.325836334E0,1.112233606E1
8.036000417E0,5.947731628E0,3.790717163E0,8.522377625E0,1.106236722E1
8.045959417E0,5.268144836E0,3.854634247E0,8.715476074E0,1.088903478E1
8.055918417E0,4.406686249E0,4.046684875E0,8.780440979E0,1.062500287E1
8.065877417E0,4.087549896E0,4.054319000E0,8.932375031E0,1.062698877E1
8.075836417E0,3.748055878E0,4.089495850E0,9.004674683E0,1.057620278E1
8.085794417E0,3.437002716E0,4.062102814E0,9.029672699E0,1.048087096E1
8.095753417E0,3.342399445E0,3.963158569E0,8.737031250E0,1.015942789E1
8.105712417E0,3.244503021E0,4.007616119E0,8.234526215E0,9.715719675E0
8.115671417E0,3.144960022E0,4.114493866E0,7.768096161E0,9.336120783E0
8.125630417E0,2.504591675E0,4.279001770E0,7.775430908E0,9.221722259E0
8.135589417E0,1.883233795E0,3.902983704E0,8.109386444E0,9.194672361E0
8.145548417E0,1.442400513E0,3.196752319E0,8.498427429E0,9.193639834E0
8.155506417E0,1.070274353E0,2.527943115E0,8.827293549E0,9.244300675E0
8.165465417E0,7.050338745E-1,2.344873810E0,9.453142090E0,9.765111434E0
8.175424417E0,1.632804565E0,3.687282257E0,1.001567230E1,1.079702704E1
8.185383417E0,2.806513824E0,5.986650696E0,1.001911514E1,1.200413157E1
8.195342417E0,2.418969727E0,6.571185150E0,9.389524384E0,1.171302937E1
8.205301417E0,2.242935791E0,5.943390656E0,9.363478546E0,1.131500702E1
8.215259417E0,1.937421112E0,5.167554016E0,9.884095917E0,1.132044907E1
8.225218417E0,1.320254517E0,4.728367310E0,1.032388138E1,1.143166900E1
8.235177417E0,7.544311523E-1,4.474644928E0,1.037627243E1,1.132513325E1
8.245136417E0,7.421566772E-1,4.494403839E0,9.896520081E0,1.089456617E1
8.255095417E0,1.015637970E0,5.098846893E0,9.020541687E0,1.041152882E1
8.265054417E0,1.280886383E0,5.650000763E0,8.160729675E0,1.000803114E1
8.275013417E0,1.716330872E0,5.943690033E0,7.619006195E0,9.814402594E0
8.284971417E0,1.922003174E0,6.057902527E0,7.538024597E0,9.859720790E0
8.294930417E0,1.810185699E0,6.107000427E0,7.993377686E0,1.022087635E1
8.304889417E0,1.814676361E0,6.099965057E0,8.647816772E0,1.073719511E1
8.314848417E0,1.964963837E0,5.770200806E0,9.088350677E0,1.094323619E1
8.324807417E0,1.789678345E0,5.277126160E0,9.398655396E0,1.092637782E1
8.334766417E0,1.674567719E0,4.715045013E0,9.856702881E0,1.105397748E1
8.344724417E0,1.908231812E0,4.323309631E0,1.037492523E1,1.140050123E1
8.354683417E0,2.526296539E0,4.145030365E0,1.064586182E1,1.170033439E1
8.364642417E0,3.035238190E0,3.972139893E0,1.053494247E1,1.166085671E1
8.374602625E0,3.369343414E0,3.670068054E0,1.005114853E1,1.121817549E1
8.384561625E0,3.441343689E0,3.422931976E0,9.369166718E0,1.055180528E1
8.394520625E0,3.126548309E0,3.200793915E0,8.782686310E0,9.856772536E0
8.404479625E0,2.672093353E0,3.124302979E0,8.401578827E0,9.353495538E0
8.414437625E0,2.103425903E0,3.208727417E0,8.303981781E0,9.147483019E0
8.424396625E0,1.757495270E0,3.366798706E0,8.319699097E0,9.145573586E0
8.434355625E0,1.760788422E0,3.426225128E0,8.396339722E0,9.237852305E0
8.444314625E0,1.828447723E0,3.367098083E0,8.551716614E0,9.370828545E0
8.454273625E0,1.937870178E0,3.268004150E0,8.617429962E0,9.417817747E0
8.464232625E0,2.258802795E0,3.262914734E0,8.548423462E0,9.424666907E0
8.474191625E0,2.721191254E0,3.322790222E0,8.503666534E0,9.526707785E0
8.484149625E0,2.952909393E0,3.458258514E0,8.528514862E0,9.665132777E0
8.494108625E0,2.990630951E0,3.640579376E0,8.517737274E0,9.733937536E0
8.504067625E0,2.988535309E0,3.816763000E0,8.514444122E0,9.797692678E0
8.514026625E0,3.018473053E0,3.903283081E0,8.606203308E0,9.920359558E0
8.523985625E0,3.036735077E0,3.865112457E0,8.783734131E0,1.006552728E1
8.533944625E0,3.150049438E0,3.663930817E0,8.962013397E0,1.018159539E1
8.543902625E0,3.206182709E0,3.528462524E0,9.082662506E0,1.025789518E1
8.553861625E0,3.014880524E0,3.616778870E0,8.936416626E0,1.010099679E1
8.563820625E0,2.837050323E0,3.749702454E0,8.605754242E0,9.806535020E0
8.573779625E0,2.753374329E0,3.776945801E0,8.266559601E0,9.496441302E0
8.583738625E0,2.910547485E0,3.852089539E0,7.992479553E0,9.337537678E0
8.593697625E0,2.994373169E0,3.929777985E0,7.793393555E0,9.227481172E0
8.603656625E0,2.952909393E0,3.874991913E0,6.938072205E0,8.477740390E0
8.613614625E0,2.597997437E0,3.553310852E0,7.750432892E0,8.913182299E0
8.623573625E0,2.526895294E0,3.498674469E0,8.222251740E0,9.286083487E0
8.633532625E0,2.605032806E0,3.625161438E0,8.436456299E0,9.544725573E0
8.643491625E0,2.712209930E0,3.705993347E0,8.653355255E0,9.796480315E0
8.653450625E0,2.832559662E0,3.839216309E0,8.793463898E0,1.000439820E1
8.663409625E0,2.730322266E0,3.877985687E0,9.317673798E0,1.045526076E1
8.673367625E0,2.871628418E0,3.833228760E0,9.495354309E0,1.063492576E1
8.683326625E0,3.274740143E0,3.909570007E0,9.584119720E0,1.085651931E1
8.693285625E0,3.659739532E0,3.968098297E0,9.491013336E0,1.091873764E1
8.703244625E0,3.447630615E0,3.875740356E0,8.759484558E0,1.018018123E1