"Time (s)","Acceleration x (m/s^2)","Acceleration y (m/s^2)","Acceleration z (m/s^2)","Absolute acceleration (m/s^2)"
-1.219208352E-3,-1.686393127E0,4.480333099E0,8.456065521E0,9.717116371E0
8.739791636E-3,-1.695673828E0,4.530778198E0,8.566685486E0,9.838260061E0
1.869879162E-2,-1.792672119E0,4.502786407E0,8.607400818E0,9.878061935E0
2.865779167E-2,-1.722168732E0,4.426594849E0,8.655899963E0,9.873459944E0
3.861679166E-2,-1.511257324E0,4.369114380E0,8.645122375E0,9.803631983E0
4.857479164E-2,-1.160536652E0,4.206851807E0,8.665629730E0,9.702452580E0
5.853379163E-2,-7.957452393E-1,4.112697601E0,8.567284241E0,9.536553429E0
6.849279167E-2,-8.583151245E-1,4.333189087E0,8.455766144E0,9.540084570E0
7.845179166E-2,-6.304888916E-1,4.690346375E0,8.390801239E0,9.633400790E0
8.841104165E-2,-2.844085693E-3,4.855303345E0,8.318950653E0,9.632181405E0
9.837004164E-2,5.613327026E-2,4.930896149E0,8.265212402E0,9.624480445E0
1.083290416E-1,-5.191204834E-1,4.935835876E0,8.147257690E0,9.539904074E0
1.182870417E-1,-1.667831726E0,4.853058014E0,7.981552277E0,9.488888844E0
1.282460417E-1,-2.630330200E0,4.497247925E0,7.757318573E0,9.344510009E0
1.382050416E-1,-2.107168121E0,3.969894562E0,7.512577515E0,8.754372692E0
1.481640416E-1,-5.899232483E-1,3.744163971E0,7.724836121E0,8.604642141E0
1.581230416E-1,2.649490356E-2,3.698658600E0,8.681197357E0,9.436310983E0
1.680820417E-1,-7.559280396E-1,3.618275757E0,9.785750427E0,1.046060505E1
1.780410417E-1,-1.271755371E0,3.644171906E0,1.020442978E1,1.090998340E1
1.880000416E-1,-1.059796143E0,3.838318176E0,1.001836670E1,1.078070154E1
1.979580416E-1,-6.468049622E-1,3.852538605E0,9.580227814E0,1.034607053E1
2.079170417E-1,-1.604663086E-1,3.842958527E0,9.073082428E0,9.854689463E0
2.178760417E-1,-2.279759216E-1,3.834276581E0,9.405541077E0,1.015961874E1
2.278350416E-1,-1.606010284E0,3.635789337E0,1.073073532E1,1.144320382E1
2.377940416E-1,-2.151625671E0,3.487298126E0,1.217687805E1,1.284784419E1
2.477530416E-1,-1.882784729E0,3.430715790E0,1.290975403E1,1.348986428E1
2.577120417E-1,-2.301913147E0,3.688330078E0,1.266336639E1,1.338892943E1
2.676710417E-1,-2.051334229E0,4.086502075E0,1.172616531E1,1.258612030E1
2.776290416E-1,-1.832189941E0,4.484674072E0,1.061352905E1,1.166688564E1
2.875880416E-1,-2.073787537E0,4.938380585E0,1.015084122E1,1.147727210E1
2.975470417E-1,-2.864143982E0,4.976251831E0,1.021625519E1,1.171914131E1
3.075060417E-1,-3.849095764E0,4.729564819E0,9.835447083E0,1.157239564E1
3.174650416E-1,-4.902305603E0,4.726870422E0,5.079986115E0,8.496008659E0
3.274240416E-1,-3.941154327E0,4.875062256E0,5.870342560E0,8.588355559E0
3.373830416E-1,-3.675606537E0,5.061275024E0,1.004875351E1,1.183655505E1
3.473420417E-1,-3.842210083E0,5.457052002E0,1.173469757E1,1.349981933E1
3.573000417E-1,-3.176095276E0,5.963898010E0,1.138951538E1,1.324298763E1
3.672590416E-1,-2.147434387E0,6.872209167E0,1.068957092E1,1.288819847E1
3.772180416E-1,-1.848655701E0,7.868836670E0,1.087952591E1,1.355360478E1
3.871770417E-1,-1.479523315E0,8.428822174E0,1.149384842E1,1.432977962E1
3.971360417E-1,-1.547781372E-1,8.908574524E0,1.198542618E1,1.493442657E1
4.070950416E-1,6.234535217E-1,9.658814392E0,1.214319809E1,1.552863966E1
4.170540416E-1,8.125103760E-1,1.091784622E1,1.236279144E1,1.651357476E1
4.270130416E-1,1.138233032E0,1.165910477E1,1.226998444E1,1.696416271E1
4.369710417E-1,1.258582764E0,1.227372665E1,1.212598389E1,1.729936073E1
4.469300417E-1,1.427880707E0,1.274614426E1,1.214918564E1,1.766651489E1
4.568890416E-1,1.651815033E0,1.296798294E1,1.231653763E1,1.796090681E1
4.668480416E-1,1.796713715E0,1.301079391E1,1.335477859E1,1.873123193E1
4.768070417E-1,1.602417755E0,1.295885193E1,1.419647827E1,1.928832759E1
4.867660417E-1,1.354233856E0,1.294343399E1,1.456171875E1,1.952972314E1
4.967250417E-1,1.320553894E0,1.251173172E1,1.416818710E1,1.894795026E1
5.066840416E-1,1.017883301E0,1.201386703E1,1.311138474E1,1.781228501E1
5.166420416E-1,9.066645813E-1,1.160207336E1,1.190698929E1,1.664952074E1
5.266010417E-1,1.154549103E0,1.150193161E1,1.111932724E1,1.603954029E1
5.365600417E-1,1.625170441E0,1.143172760E1,1.077908478E1,1.579601986E1
5.465190416E-1,1.732796631E0,1.117216736E1,1.069481003E1,1.556273977E1
5.564780416E-1,1.300196228E0,1.079689774E1,1.074600357E1,1.528856120E1
5.664370416E-1,1.056802368E0,1.026340714E1,1.044782364E1,1.468371125E1
5.763960417E-1,9.818083191E-1,9.893675995E0,9.758207703E0,1.393095079E1
5.863550417E-1,9.656419373E-1,9.633666687E0,9.076974335E0,1.327145287E1
5.963130416E-1,1.175056458E0,9.383387146E0,8.464897156E0,1.269185549E1
6.062720416E-1,1.419198761E0,9.129215698E0,8.047415314E0,1.225224868E1
6.162310417E-1,1.155297546E0,8.677006073E0,8.032147064E0,1.188025813E1
6.261900417E-1,3.411405945E-1,8.096064148E0,8.138575745E0,1.148473103E1
6.361490416E-1,-5.040019226E-1,7.547005920E0,7.989336090E0,1.100185473E1
6.461080416E-1,-9.648934937E-1,6.843169556E0,7.779622192E0,1.040588826E1
6.560670416E-1,-8.991801453E-1,6.206992493E0,7.176676025E0,9.530999922E0
6.660260417E-1,-6.765930176E-1,6.007158051E0,6.162534943E0,8.632529344E0
6.759840416E-1,-3.870950317E-1,5.817352753E0,5.256020050E0,7.849661291E0
6.859430416E-1,-2.586621094E-1,5.600902863E0,4.641098785E0,7.278517493E0
6.959020416E-1,-2.213896179E-1,5.285359039E0,4.085005188E0,6.683659246E0
7.058610417E-1,-1.751358032E-2,4.909790039E0,3.587439880E0,6.080795166E0
7.158200417E-1,4.619393921E-1,4.472549286E0,2.942580872E0,5.373627016E0
7.257790416E-1,6.649172974E-1,4.048032074E0,2.011067963E0,4.568705838E0
7.357380416E-1,5.821394348E-1,3.772754517E0,1.134191437E0,3.982330119E0
7.456970416E-1,3.050656128E-1,3.384162598E0,3.367996216E-1,3.414535913E0
7.556550417E-1,-1.691482544E-2,2.870131531E0,-2.674937439E-1,2.882619298E0
7.656140417E-1,-7.119195557E-1,2.346969452E0,-6.092330933E-1,2.527105068E0
7.755730416E-1,-1.171463928E0,1.769620056E0,-7.598199463E-1,2.254153772E0
7.855320416E-1,-1.319955139E0,1.438209229E0,-8.734336853E-1,2.138600888E0
7.954910417E-1,-9.633966064E-1,1.307530975E0,-1.001866608E0,1.908273296E0
8.054500417E-1,-5.966592407E-1,1.363813934E0,-1.121318207E0,1.863691288E0
8.154090417E-1,-2.823129272E-1,1.398691406E0,-1.114582214E0,1.810616401E0
8.253680416E-1,2.414479065E-1,1.434916077E0,-1.127156067E0,1.840587416E0
8.353270416E-1,8.711883545E-1,1.415306854E0,-1.494192810E0,2.234876908E0
8.452850417E-1,8.074209595E-1,1.366358643E0,-2.203417969E0,2.715495404E0
8.552440417E-1,4.173321533E-1,1.136287079E0,-2.812201996E0,3.061665318E0
8.652030416E-1,1.083746338E-1,5.284011841E-1,-2.893482971E0,2.943330864E0
8.751620416E-1,-2.586621094E-1,-2.002835083E-1,-2.768941956E0,2.788199979E0
8.851210417E-1,-4.192781067E-1,-4.700225830E-1,-2.893033905E0,2.960804035E0
8.950800417E-1,-4.273612976E-1,-5.620811462E-1,-3.319646759E0,3.393910355E0
9.050390417E-1,-3.073109436E-1,-7.984396362E-1,-4.077221375E0,4.166014883E0
9.149980416E-1,1.270857239E-1,-7.869136047E-1,-4.417763214E0,4.489099645E0
9.249560416E-1,-3.757186890E-2,-7.111711121E-1,-3.867657166E0,3.932676944E0
9.349150417E-1,-1.826202393E-2,-5.394781494E-1,-3.155587921E0,3.201422388E0
9.448740417E-1,1.049317932E-1,-2.453398132E-1,-2.390828247E0,2.405672881E0
9.548330416E-1,-2.829116821E-2,5.179229736E-2,-1.840572510E0,1.841518394E0
9.647920416E-1,-2.224374390E-1,1.878593445E-1,-1.681154022E0,1.706179473E0
9.747510416E-1,-3.356021118E-1,1.206491089E-1,-1.869911499E0,1.903616032E0
9.847100417E-1,3.068618774E-2,5.239105225E-3,-2.012265472E0,2.012506254E0
9.946680416E-1,-5.493576050E-2,-2.537223816E-1,-1.312321014E0,1.337751632E0
1.004627042E0,-2.636018372E-1,4.035607910E-1,-4.162843323E-1,6.368986465E-1
1.014586042E0,1.483415222E-1,1.277293854E0,3.626957703E-1,1.336051278E0
1.024545042E0,3.951782227E-1,1.602567444E0,1.056502991E0,1.959741516E0
1.034504042E0,6.403683472E-1,1.654060364E0,1.201251984E0,2.142193650E0
1.044463042E0,9.259744263E-1,1.881287842E0,1.044527893E0,2.342586413E0
1.054422042E0,5.297483826E-1,2.444416809E0,1.704954529E0,3.026991383E0
1.064381042E0,2.842588806E-1,3.206482086E0,2.255210266E0,3.930433033E0
1.074339042E0,5.391787720E-1,3.777095490E0,2.113754425E0,4.361779666E0
1.084298042E0,7.882608032E-1,3.992796936E0,2.085612946E0,4.573135011E0
1.094256667E0,4.373904419E-1,4.536017303E0,2.242037659E0,5.078729786E0
1.104215667E0,8.294252014E-1,5.418881378E0,2.772833862E0,6.143356508E0
1.114174667E0,2.029329987E0,6.083050232E0,3.179837494E0,7.157726371E0
1.124133667E0,3.007545776E0,6.583759003E0,3.220852203E0,7.922443002E0
1.134092667E0,3.737727356E0,7.370373230E0,3.565435638E0,9.000296586E0
1.144051667E0,4.203558655E0,9.213041382E0,3.326233063E0,1.065898040E1
1.154010667E0,4.359833679E0,1.089973389E1,3.315156097E0,1.219846746E1
1.163968667E0,3.962110748E0,1.160611496E1,3.013233948E0,1.262853138E1
1.173927667E0,3.407663727E0,1.142154877E1,2.800675964E0,1.224368140E1
1.183886667E0,3.019969940E0,1.123668320E1,3.301384735E0,1.209472649E1
1.193845667E0,3.460354156E0,1.210278214E1,4.230352936E0,1.327958103E1
1.203804667E0,4.491110687E0,1.390174118E1,4.335883484E0,1.523904094E1
1.213763667E0,5.829178162E0,1.611638580E1,4.917723541E0,1.782978447E1
1.223722667E0,6.570885773E0,1.808194839E1,6.328240356E0,2.025290161E1
1.233681667E0,5.886059875E0,1.946537155E1,8.005053406E0,2.185468532E1
1.243639667E0,4.198469238E0,2.068443649E1,9.906698914E0,2.331556863E1
1.253598667E0,3.176544342E0,2.172986252E1,1.061158310E1,2.439022458E1
1.263557667E0,3.226989441E0,2.291300217E1,1.085048630E1,2.555684218E1
1.273516667E0,3.149600372E0,2.455059677E1,1.138697067E1,2.724545623E1
1.283475667E0,3.345393219E0,2.651481216E1,1.246248413E1,2.948797095E1
1.293434667E0,4.534071350E0,2.782264252E1,1.305570053E1,3.106619636E1
1.303393667E0,4.838538208E0,2.813189941E1,1.303848633E1,3.138179954E1
1.313352667E0,4.240681458E0,2.753239609E1,1.307351349E1,3.077227597E1
1.323310667E0,3.682492218E0,2.662962341E1,1.263761993E1,2.970533672E1
1.333269667E0,4.001778259E0,2.590019028E1,1.131811386E1,2.854704515E1
1.343228667E0,4.339326324E0,2.494143402E1,1.020173538E1,2.729432704E1
1.353187667E0,4.542004852E0,2.372850632E1,9.605974274E0,2.599897232E1
1.363146667E0,4.418661346E0,2.235960297E1,9.163045349E0,2.456497126E1
1.373105667E0,3.787723389E0,2.077095657E1,8.675658875E0,2.282644393E1
1.383064667E0,3.307072906E0,1.911300430E1,8.169561310E0,2.104721826E1
1.393023667E0,2.950963440E0,1.777808029E1,7.602839813E0,1.955943499E1
1.402981667E0,2.313888245E0,1.654195084E1,6.903194733E0,1.807330390E1
1.412940667E0,1.705403595E0,1.558588898E1,6.325545959E0,1.690682904E1
1.422899667E0,1.189576263E0,1.478714996E1,5.888305206E0,1.596079678E1
1.432858667E0,7.680528259E-1,1.392135040E1,5.459297333E0,1.497323711E1
1.442817667E0,-9.475296021E-2,1.322769287E1,4.954546967E0,1.412545123E1
1.452776667E0,-1.257385254E0,1.249556534E1,4.675826569E0,1.340087777E1
1.462735667E0,-1.854194183E0,1.153127060E1,4.776866455E0,1.261850589E1
1.472694667E0,-2.393971710E0,1.067385361E1,4.661157074E0,1.189069538E1
1.482652667E0,-2.695893860E0,1.016610947E1,4.333338776E0,1.137521210E1
1.492611667E0,-2.293979645E0,9.904303894E0,4.019142151E0,1.093211242E1
1.502570667E0,-1.208736420E0,9.716743927E0,3.706442413E0,1.046966435E1
1.512529667E0,-3.659889221E-1,9.448052673E0,3.486100616E0,1.007732825E1
1.522488667E0,-5.703140259E-1,9.252409515E0,3.101999359E0,9.775210481E0
1.532447667E0,-6.785389709E-1,8.873996429E0,2.847229156E0,9.344246446E0
1.542406667E0,-4.532574463E-1,8.450826416E0,2.754422150E0,8.899929820E0
1.552365667E0,-3.007246399E-1,8.084687805E0,2.331102448E0,8.419421051E0
1.562323667E0,-1.721420288E-1,7.374564514E0,1.592837677E0,7.546586415E0
1.572282667E0,-9.056167603E-2,6.490802307E0,9.358538818E-1,6.558546981E0
1.582241667E0,-1.857637024E-1,5.584137726E0,3.061134338E-1,5.595606109E0
1.592200667E0,-3.682342529E-1,4.548441467E0,-7.873626709E-2,4.564002152E0
1.602159667E0,7.351213074E-1,3.920048218E0,6.724017334E-1,4.044663825E0
1.612118667E0,1.787283325E0,3.764072571E0,1.024918671E0,4.291046759E0
1.622077667E0,1.689237213E0,3.431613922E0,1.066831512E0,3.970847006E0
1.632036667E0,1.293160858E0,3.077450409E0,1.343007202E0,3.598143184E0
1.641994667E0,7.764353943E-1,2.614912262E0,1.137484589E0,2.955416933E0
1.651953667E0,9.280700684E-1,1.975292358E0,7.192543030E-1,2.297916601E0
1.661912667E0,1.001866608E0,1.564396820E0,4.932243347E-1,1.922067729E0
1.671871667E0,5.417234802E-1,1.349294128E0,3.616479492E-1,1.498281754E0
1.681830667E0,6.421646118E-2,1.103954315E0,-3.338058472E-2,1.106324160E0
1.691789667E0,2.966830444E-1,8.780740356E-1,-7.432044983E-1,1.188018420E0
1.701748667E0,8.702902222E-1,5.712121582E-1,-1.274449768E0,1.645573034E0
1.711707667E0,1.117575989E0,2.095642090E-3,-1.531016235E0,1.895518714E0
1.721665667E0,8.734336853E-1,-5.733078003E-2,-1.726509705E0,1.935719241E0
1.731624667E0,6.405180359E-1,8.711883545E-2,-2.272274780E0,2.362432163E0
1.741583667E0,5.613327026E-1,-1.930984497E-1,-2.999911652E0,3.058079680E0
1.751542667E0,3.594026184E-1,-5.016069031E-1,-3.287912750E0,3.345317620E0
1.761501667E0,3.285667419E-1,-6.794371033E-1,-3.131038971E0,3.220713573E0
1.771460667E0,7.195536804E-1,-7.411088562E-1,-2.872526550E0,3.052606856E0
1.781419667E0,7.735913086E-1,-5.435197449E-1,-2.910098419E0,3.059825164E0
1.791378667E0,7.872129822E-1,-3.872447205E-1,-3.015479279E0,3.140506015E0
1.801336667E0,1.200653229E0,-4.071533203E-1,-2.910846863E0,3.174960072E0
1.811295667E0,1.594933319E0,-4.481680298E-1,-2.553240509E0,3.043633350E0
1.821254667E0,1.774410095E0,-4.920268250E-1,-1.604064331E0,2.442057321E0
1.831213667E0,1.737586670E0,-1.913021851E-1,-1.390757904E0,2.233833366E0
1.841172667E0,1.497935028E0,2.877017212E-1,-2.255210266E0,2.722600774E0
1.851131667E0,9.886940002E-1,5.364843750E-1,-2.676584015E0,2.903348636E0
1.861090667E0,6.475534058E-1,6.099815369E-1,-2.251917114E0,2.421266937E0
1.871049667E0,3.588038635E-1,7.149133301E-1,-1.600920868E0,1.789633736E0
1.881008667E0,3.496728516E-1,9.632469177E-1,-1.027613068E0,1.451242345E0
1.890966667E0,7.315287781E-1,1.077609100E0,-4.956193542E-1,1.393561721E0
1.900925667E0,1.274449768E0,1.255289612E0,1.757345581E-1,1.797458443E0
1.910884667E0,1.262774048E0,1.735940094E0,6.804849243E-1,2.251920522E0
1.920843667E0,1.021625519E0,2.296674042E0,1.148711243E0,2.763687369E0
1.930802667E0,8.898994446E-1,3.026107178E0,1.533111877E0,3.507089634E0
1.940761667E0,8.023315430E-1,3.861968994E0,1.538051605E0,4.233691434E0
1.950720667E0,9.366023254E-1,4.517904968E0,1.451082458E0,4.836768500E0
1.960679667E0,9.199868774E-1,5.042863312E0,1.365460510E0,5.304840115E0
1.970637667E0,1.626218262E0,5.248385925E0,2.179168396E0,5.910914951E0
1.980596667E0,2.089654541E0,5.781427460E0,2.466421051E0,6.623804977E0
1.990555667E0,2.415077820E0,6.563401337E0,2.753074951E0,7.516000244E0
2.000514667E0,2.783761139E0,7.518415375E0,2.671644287E0,8.450655538E0
2.010473667E0,3.296594696E0,7.960745544E0,2.076332245E0,8.862965745E0
2.020432667E0,3.338956604E0,8.030650177E0,1.716630249E0,8.864919226E0
2.030391667E0,2.601889343E0,7.933352509E0,1.512903900E0,8.485092126E0
2.040349667E0,2.035916290E0,7.845185852E0,2.018851776E0,8.352703675E0
2.050308667E0,1.462608490E0,8.028853912E0,2.680176544E0,8.589823342E0
2.060267667E0,1.832040253E0,8.741372223E0,3.113226013E0,9.458336854E0
2.070226667E0,2.600542145E0,9.733059998E0,3.403771820E0,1.063395218E1
2.080185667E0,2.978356476E0,1.064855621E1,3.312910767E0,1.154286509E1
2.090144542E0,2.327509918E0,1.109867020E1,3.308120728E0,1.181276620E1
2.100103542E0,1.274300079E0,1.140762772E1,3.323388977E0,1.195000942E1
2.110062542E0,5.255570984E-1,1.177825699E1,3.663182373E0,1.234594885E1
2.120020542E0,7.696994019E-1,1.267085083E1,4.201163635E0,1.337133777E1
2.129979542E0,1.938768311E0,1.379905472E1,4.670587463E0,1.469650030E1
2.139938542E0,2.176773376E0,1.463371902E1,5.101690979E0,1.564964299E1
2.149897542E0,1.618584137E0,1.511661484E1,6.319857788E0,1.646427834E1
2.159856542E0,7.096742249E-1,1.532587967E1,7.339986420E0,1.700769314E1
2.169815542E0,-4.821473694E-1,1.530941391E1,7.315736847E0,1.697441092E1
2.179774542E0,-1.226250000E0,1.551239182E1,7.070247345E0,1.709170519E1
2.189733542E0,-1.234482880E0,1.639869873E1,6.557114410E0,1.770415255E1
2.199691542E0,-9.089099121E-1,1.748019974E1,6.648723907E0,1.872402280E1
2.209650542E0,-4.695735168E-1,1.854179214E1,7.424560547E0,1.997855487E1
2.219609542E0,-3.397933960E-1,1.964829117E1,8.084687805E0,2.124930545E1
2.229568542E0,4.370910645E-1,2.095417557E1,8.538693695E0,2.263134579E1
2.239527542E0,1.434317322E0,2.184976318E1,8.554860077E0,2.350861647E1
2.249486542E0,2.329605560E0,2.215632568E1,8.360264740E0,2.379545873E1
2.259445542E0,2.441423035E0,2.210707809E1,7.995024261E0,2.363480191E1
2.269404542E0,2.260299683E0,2.182521423E1,7.602540436E0,2.322170433E1
2.279362542E0,2.205064545E0,2.139949951E1,7.156617737E0,2.267196653E1
2.289321542E0,2.243534546E0,2.100956039E1,6.741381226E0,2.217839706E1
2.299280542E0,2.301913147E0,2.069117249E1,6.488107910E0,2.180639739E1
2.309239542E0,2.249821472E0,2.039014847E1,6.454877014E0,2.150547113E1
2.319198542E0,2.287692719E0,2.016396881E1,6.618337097E0,2.134529368E1
2.329157542E0,2.463726654E0,1.988824219E1,6.654861145E0,2.111632788E1
2.339116542E0,2.481240234E0,1.923799438E1,6.508615265E0,2.046018215E1
2.349075542E0,2.341281281E0,1.850227432E1,6.279142456E0,1.967850053E1
2.359034542E0,1.835632782E0,1.768452484E1,5.925278320E0,1.874088818E1
2.368992542E0,1.426683197E0,1.682800598E1,5.817951508E0,1.786241221E1
2.378951542E0,1.234333191E0,1.602298004E1,5.744454346E0,1.706628910E1
2.388910542E0,1.101409607E0,1.550790115E1,5.335504761E0,1.643702261E1
2.398869542E0,1.000669098E0,1.519220764E1,5.085374908E0,1.605196404E1
2.408828542E0,8.785231018E-1,1.497261429E1,5.087171173E0,1.583762268E1
2.418787542E0,4.878355408E-1,1.478655121E1,5.111570435E0,1.565273882E1
2.428746542E0,1.360670471E-1,1.442505295E1,5.160518646E0,1.532095361E1
2.438705542E0,6.062393188E-2,1.396101791E1,5.287005615E0,1.492870138E1
2.448663542E0,-1.504371643E-1,1.351614304E1,5.404960327E0,1.455755302E1
2.458622542E0,-2.791694641E-1,1.309222458E1,5.296885071E0,1.412590781E1
2.468581542E0,-1.857637024E-1,1.277638138E1,5.046306152E0,1.373810886E1
2.478540542E0,1.438508606E-1,1.248763184E1,4.821174316E0,1.338676076E1
2.488499542E0,2.595602417E-1,1.208541824E1,4.617597656E0,1.294012804E1
2.498458542E0,-1.357676697E-1,1.168904251E1,4.423301697E0,1.249870976E1
2.508417542E0,-6.643185425E-1,1.105570953E1,4.306245117E0,1.188334042E1
2.518376542E0,-8.002359009E-1,1.031445099E1,4.207749939E0,1.116841243E1
2.528334542E0,-6.077362061E-1,9.817035370E0,4.134552155E0,1.066949147E1
2.538293542E0,-2.805166626E-1,9.443711700E0,3.707340546E0,1.014922432E1
2.548252542E0,2.371069336E-1,8.906329193E0,3.290158081E0,9.497581776E0
2.558211542E0,2.035766602E-1,8.136180725E0,2.923570404E0,8.647898251E0
2.568170542E0,1.657054138E-1,7.146588593E0,2.565365295E0,7.594885509E0
2.578129542E0,2.095642090E-2,6.209387512E0,2.133812714E0,6.565827377E0
2.588088542E0,8.801696777E-2,5.588628387E0,1.795366516E0,5.870592403E0
2.598047542E0,5.644761658E-1,5.355712738E0,1.694626007E0,5.645710724E0
2.608005542E0,8.482859802E-1,5.208868103E0,1.671424255E0,5.535842760E0
2.617964542E0,1.071022797E0,5.210514679E0,2.002685394E0,5.683951252E0
2.627923542E0,1.129251709E0,5.041815491E0,2.072590027E0,5.566932933E0
2.637882542E0,9.626481628E-1,4.615651703E0,1.810634766E0,5.050676230E0
2.647841542E0,6.020480347E-1,4.032913513E0,1.440454559E0,4.324553454E0
2.657800542E0,3.655398560E-1,3.428021393E0,1.078956299E0,3.612353354E0
2.667759542E0,3.357518005E-1,2.807411957E0,5.755531311E-1,2.885403364E0
2.677718542E0,4.442761230E-1,2.249522095E0,2.085163879E-1,2.302435670E0
2.687676542E0,3.430865479E-1,1.830992432E0,1.216969299E-1,1.866829346E0
2.697635542E0,1.704954529E-1,1.610351257E0,-9.580078125E-3,1.619380020E0
2.707594542E0,8.816665649E-2,1.445843353E0,-1.776805115E-1,1.459385736E0
2.717553542E0,2.595602417E-1,1.354982300E0,-2.764750671E-1,1.407049045E0
2.727512542E0,6.602769470E-1,1.379381561E0,-3.023712158E-1,1.558873789E0
2.737471542E0,1.086141357E0,1.417701874E0,-4.912783813E-1,1.852278624E0
2.747430542E0,1.512155457E0,1.403331757E0,-5.465135193E-1,2.134158188E0
2.757389542E0,1.435814209E0,1.303639069E0,-5.987548828E-1,2.029666148E0
2.767347542E0,1.364412689E0,1.208287354E0,-5.760021973E-1,1.911376166E0
2.777306542E0,1.200653229E0,1.113085327E0,-5.840853882E-1,1.738298841E0
2.787265542E0,1.172811127E0,1.031804352E0,-7.918533325E-1,1.751324601E0
2.797224542E0,1.359622650E0,9.833052063E-1,-1.161434784E0,2.040684600E0
2.807183542E0,1.645528107E0,8.294252014E-1,-1.448238373E0,2.343737037E0
2.817142542E0,1.829495544E0,6.756948853E-1,-1.690285034E0,2.580829522E0
2.827101542E0,1.723515930E0,5.569917297E-1,-1.967658234E0,2.674401965E0
2.837059542E0,1.789378967E0,4.890330505E-1,-1.933978271E0,2.679795210E0
2.847018542E0,1.866169281E0,5.185217285E-1,-1.814077606E0,2.653738896E0
2.856977542E0,1.622625732E0,6.053411865E-1,-1.565594330E0,2.334617276E0
2.866936542E0,1.271006927E0,1.092428284E0,-8.446934509E-1,1.876796524E0
2.876895542E0,1.015488281E0,1.705553284E0,-4.550537109E-1,2.036468103E0
2.886854542E0,1.051862640E0,2.080373840E0,-3.608995056E-1,2.358944421E0
2.896813542E0,1.174906769E0,2.431543579E0,-3.023712158E-2,2.700689611E0
2.906772542E0,1.113983459E0,2.811004486E0,4.418811035E-1,3.055808286E0
2.916730542E0,1.351689148E0,3.269800415E0,8.481362915E-1,3.638405348E0
2.926689542E0,1.264420624E0,3.650159454E0,1.333576813E0,4.086667429E0
2.936648542E0,1.061293030E0,4.027973785E0,1.533111877E0,4.438620027E0
2.946607542E0,9.410929871E-1,4.205504608E0,1.788780212E0,4.666011109E0
2.956566542E0,5.284011841E-1,4.235741730E0,2.024390259E0,4.724285314E0
2.966525542E0,4.799020386E-1,4.288731537E0,1.589993591E0,4.599087277E0
2.976484542E0,1.116827545E0,4.385280762E0,1.335971832E0,4.718348425E0
2.986443542E0,1.987417145E0,4.621339874E0,1.429377594E0,5.229696879E0
2.996401542E0,2.126627655E0,5.272785187E0,1.271905060E0,5.826023626E0
3.006360542E0,1.846560059E0,6.167025604E0,1.595382385E0,6.632287223E0
3.016319542E0,1.380429382E0,6.869215393E0,2.430944824E0,7.416279265E0
3.026278542E0,1.404379578E0,7.456893311E0,3.191363525E0,8.231788444E0
3.036237542E0,1.538500671E0,7.877518616E0,3.108585663E0,8.607298570E0
3.046196542E0,1.632505188E0,8.283923492E0,2.772085419E0,8.886670872E0
3.056155542E0,1.632804565E0,8.872948608E0,2.525997162E0,9.368880905E0
3.066114542E0,1.761836243E0,9.395960999E0,2.585722961E0,9.903237514E0
3.076072542E0,1.837279358E0,9.732161865E0,3.320544891E0,1.044588859E1
3.086031542E0,1.564696198E0,1.034064651E1,4.465962982E0,1.137198619E1
3.095991292E0,1.327589264E0,1.169877228E1,5.376220093E0,1.294324181E1
3.105950292E0,9.810598755E-1,1.307441162E1,6.381978607E0,1.458191924E1
3.115909292E0,8.261320496E-1,1.421324341E1,7.233557739E0,1.596944394E1
3.125868292E0,1.140478363E0,1.520163803E1,8.060438232E0,1.724416290E1
3.135827292E0,9.551637268E-1,1.592882584E1,9.154213715E0,1.839672414E1
3.145786292E0,2.252815247E-1,1.677501617E1,1.031475037E1,1.969380599E1
3.155744292E0,-1.546284485E-1,1.796339493E1,1.093865295E1,2.103239396E1
3.165703292E0,2.992277527E-1,1.927631470E1,1.101903580E1,2.220551723E1
3.175662292E0,1.360371094E0,2.035572006E1,1.093341385E1,2.314617651E1
3.185621292E0,2.231559448E0,2.111554001E1,1.073402847E1,2.379212590E1
3.195580292E0,2.550246735E0,2.150173691E1,1.063238983E1,2.412210940E1
3.205539292E0,2.623294830E0,2.142195282E1,1.078372513E1,2.412613657E1
3.215498292E0,2.589465179E0,2.113200577E1,1.056802368E1,2.376867944E1
3.225457292E0,2.755320282E0,2.076916031E1,9.954599304E0,2.319577240E1
3.235415292E0,2.957699432E0,2.030422714E1,9.432035980E0,2.258258020E1
3.245374292E0,3.054098969E0,1.979797989E1,9.091943207E0,2.199888541E1
3.255333292E0,3.013982391E0,1.927451843E1,8.965905304E0,2.147041240E1
3.265292292E0,2.891387329E0,1.878368912E1,8.806935883E0,2.094634138E1
3.275251292E0,2.776127014E0,1.835228622E1,8.723259888E0,2.050874335E1
3.285210292E0,2.810555420E0,1.796159866E1,8.728049927E0,2.016673260E1
3.295169292E0,2.787503357E0,1.755205032E1,8.682544556E0,1.977956586E1
3.305128292E0,2.473606110E0,1.701706284E1,8.654103699E0,1.925078351E1
3.315086292E0,2.160008240E0,1.637684418E1,8.629105682E0,1.863674128E1
3.325045292E0,1.770817566E0,1.555430466E1,8.467591553E0,1.779809807E1
3.335004292E0,1.250798950E0,1.471874222E1,8.199648743E0,1.689497292E1
3.344963292E0,7.735913086E-1,1.399110535E1,7.985294495E0,1.612806252E1
3.354922292E0,3.631448364E-1,1.334579727E1,7.867788849E0,1.549658931E1
3.364881292E0,1.276844788E-1,1.292562103E1,7.614665222E0,1.500237011E1
3.374840292E0,1.181044006E-1,1.272593628E1,7.353308716E0,1.469811389E1
3.384799292E0,1.477427673E-1,1.263193176E1,7.119644623E0,1.450092644E1
3.394757292E0,2.998265076E-1,1.264465530E1,6.796616364E0,1.435866281E1
3.404716292E0,5.462141418E-1,1.263163239E1,6.571185150E0,1.424910386E1
3.414675292E0,7.536827087E-1,1.258567795E1,6.557713165E0,1.421164765E1
3.424634292E0,1.156495056E0,1.267144958E1,6.697223053E0,1.437900942E1
3.434593292E0,1.586700439E0,1.291783722E1,6.745722198E0,1.465922592E1
3.444552292E0,1.595831451E0,1.303190002E1,6.685247955E0,1.473328329E1
3.454511292E0,1.546733551E0,1.293026138E1,6.807992706E0,1.469465239E1
3.464470292E0,1.399140472E0,1.252729935E1,6.906936951E0,1.437346865E1
3.474428292E0,1.061891785E0,1.195893127E1,6.808741150E0,1.380226820E1
3.484387292E0,7.584727478E-1,1.125943588E1,6.840325470E0,1.319622029E1
3.494346292E0,3.796105957E-1,1.044497955E1,6.682852936E0,1.240573357E1
3.504305292E0,2.444416809E-1,9.717492371E0,6.399342499E0,1.163791193E1
3.514264292E0,8.496331787E-1,9.085656281E0,5.991141357E0,1.091626316E1
3.524223292E0,1.364861755E0,8.426427155E0,5.430706787E0,1.011731676E1
3.534182292E0,9.198371887E-1,7.743247833E0,5.112019501E0,9.323986853E0
3.544141292E0,2.095642090E-1,6.878496094E0,5.025499420E0,8.521342036E0
3.554099292E0,-3.341052246E-1,5.809568939E0,4.836442566E0,7.566630310E0
3.564058292E0,-7.840695190E-1,4.713548126E0,4.331841888E0,6.449585653E0
3.574017292E0,-1.325643311E0,3.696413269E0,3.695215759E0,5.392162901E0
3.583976292E0,-1.895059204E0,2.803669739E0,3.050506439E0,4.556029294E0
3.593935292E0,-2.380499725E0,2.090103607E0,2.212548981E0,3.864024459E0
3.603894292E0,-2.059716797E0,1.493444366E0,1.400188293E0,2.904020767E0
3.613853292E0,-5.360353088E-1,1.146765289E0,7.282356262E-1,1.460387486E0
3.623812292E0,1.727258148E0,9.166937256E-1,-1.740879822E-1,1.963174654E0
3.633770292E0,2.787054291E0,6.200106812E-1,-7.906558228E-1,2.962637591E0
3.643729292E0,2.332749023E0,4.167333984E-1,-1.166973267E0,2.641441148E0
3.653688292E0,1.397044830E0,2.888992310E-1,-1.139131165E0,1.825600404E0
3.663647292E0,5.523513794E-1,1.291813660E-1,-8.613088989E-1,1.031325793E0
3.673606292E0,4.071533203E-2,-8.726852417E-2,-1.027613068E0,1.032115376E0
3.683565292E0,-3.308120728E-1,-1.758842468E-1,-1.406475220E0,1.455522050E0
3.693524292E0,-3.511697388E-1,-1.140628052E-1,-1.509011993E0,1.553527504E0
3.703483292E0,-3.131488037E-1,-4.131408691E-2,-1.579665070E0,1.610934747E0
3.713441292E0,8.382568359E-2,1.469943237E-1,-1.718276825E0,1.726588927E0
3.723400292E0,1.247206421E0,5.002597046E-1,-1.860331421E0,2.294911027E0
3.733359292E0,2.322420502E0,8.072712708E-1,-2.026036835E0,3.185929872E0
3.743318292E0,2.474504242E0,9.966275024E-1,-2.079475708E0,3.382404003E0
3.753277292E0,1.971849518E0,1.044677582E0,-1.955683136E0,2.967193674E0
3.763236292E0,1.072220306E0,8.394543457E-1,-1.803749084E0,2.260055474E0
3.773195292E0,1.945953369E-1,5.930667114E-1,-1.588945770E0,1.707145023E0
3.783153292E0,-4.099974060E-1,6.879693604E-1,-1.383572845E0,1.598647407E0
3.793112292E0,-8.925938416E-1,8.089178467E-1,-1.279988251E0,1.757680793E0
3.803071292E0,-7.472460938E-1,8.135581970E-1,-9.087602234E-1,1.430419102E0
3.813030292E0,-4.131408691E-1,7.005432129E-1,-8.548722839E-1,1.179937622E0
3.822989292E0,-3.971241760E-1,5.174739075E-1,-1.016536102E0,1.207821387E0
3.832948292E0,-2.903961182E-1,2.487826538E-1,-7.927514648E-1,8.801577127E-1
3.842907292E0,-2.766247559E-1,6.780899048E-2,-3.092568970E-1,4.204273339E-1
3.852866292E0,-7.244934082E-1,2.469863892E-1,2.272274780E-1,7.984518155E-1
3.862824292E0,-1.264270935E0,9.222322083E-1,1.130898285E0,1.930757409E0
3.872783292E0,-1.566342773E0,1.740580444E0,1.684147797E0,2.884337665E0
3.882742292E0,-1.579365692E0,2.343825989E0,2.199376373E0,3.581225026E0
3.892701292E0,-1.152004395E0,2.856809235E0,2.797532501E0,4.161088947E0
3.902660292E0,-3.791615295E-1,3.418740692E0,2.912194061E0,4.506930844E0
3.912619292E0,1.448986816E-1,3.884422302E0,2.987188110E0,4.902348933E0
3.922578292E0,3.124003601E-1,4.379742279E0,3.365750885E0,5.532451124E0
3.932537292E0,4.463717651E-1,5.081333313E0,3.222498779E0,6.033547412E0
3.942495292E0,6.273454285E-1,5.717061310E0,3.320844269E0,6.641261850E0
3.952454292E0,1.238075409E0,6.223757629E0,3.558250580E0,7.275241366E0
3.962413292E0,1.976489868E0,6.848558350E0,3.826492767E0,8.090198426E0
3.972372292E0,2.274220734E0,7.767198029E0,4.235442352E0,9.134572627E0
3.982331292E0,1.788929901E0,8.771309967E0,4.586612091E0,1.005848692E1
3.992290292E0,1.215173035E0,9.665101318E0,5.662424927E0,1.126738146E1
4.002249292E0,8.424481201E-1,1.062804886E1,6.835685120E0,1.266458576E1
4.012208292E0,1.061742096E0,1.183663559E1,7.518864441E0,1.406294993E1
4.022166292E0,1.770518188E0,1.311422882E1,8.158035278E0,1.554577987E1
4.032125292E0,2.040706329E0,1.440394684E1,8.867110748E0,1.703713062E1
4.042084292E0,2.120939484E0,1.572240509E1,9.345815277E0,1.841294841E1
4.052043292E0,2.291135559E0,1.698996918E1,9.595346375E0,1.964634894E1
4.062002292E0,2.786455536E0,1.813089661E1,9.880054321E0,2.083528785E1
4.071961292E0,3.273842010E0,1.909758636E1,1.034259247E1,2.196372158E1
4.081920292E0,3.735182648E0,1.999871246E1,1.101035385E1,2.313283341E1
4.091879542E0,4.217629395E0,2.089295288E1,1.135793106E1,2.415173857E1
4.101837542E0,4.651427307E0,2.160966248E1,1.143157791E1,2.488562360E1
4.111796542E0,5.031936035E0,2.204630447E1,1.132140701E1,2.528901299E1
4.121755542E0,5.063370667E0,2.212953140E1,1.099029556E1,2.522182545E1
4.131714542E0,4.716242523E0,2.181114349E1,1.082518890E1,2.480229100E1
4.141673542E0,4.530628510E0,2.127929947E1,1.092712692E1,2.434619649E1
4.151632542E0,4.236939240E0,2.072634933E1,1.073732162E1,2.372389695E1
4.161591542E0,4.124373322E0,2.018567368E1,1.044917084E1,2.310101834E1
4.171550542E0,4.322261810E0,1.971774673E1,1.014200958E1,2.259052549E1
4.181508542E0,4.498146057E0,1.932316727E1,9.837393036E0,2.214480555E1
4.191467542E0,4.274062042E0,1.884506149E1,9.590406647E0,2.157266438E1
4.201426542E0,3.785328369E0,1.810140793E1,9.360185394E0,2.072686060E1
4.211385542E0,3.260819092E0,1.711765366E1,9.305698700E0,1.975457001E1
4.221344542E0,2.870281219E0,1.607043137E1,9.075627136E0,1.867790905E1
4.231303542E0,2.489024048E0,1.512993713E1,8.711584167E0,1.763524701E1
4.241262542E0,2.198927307E0,1.428404617E1,8.343499603E0,1.668781717E1
4.251221542E0,1.977537689E0,1.355281677E1,8.032296753E0,1.587788679E1
4.261179542E0,1.955982513E0,1.305674835E1,7.553592224E0,1.521056543E1
4.271138542E0,1.710493011E0,1.263552429E1,7.117998047E0,1.460301875E1
4.281097542E0,1.427880707E0,1.220546860E1,6.943161621E0,1.411452444E1
4.291056542E0,1.403182068E0,1.200862793E1,6.791377258E0,1.386718680E1
4.301015542E0,1.609303436E0,1.205697739E1,6.611750793E0,1.384470331E1
4.310974542E0,1.743574219E0,1.219903198E1,6.478078766E0,1.392199472E1
4.320933542E0,1.689536591E0,1.226714035E1,6.481820984E0,1.397681185E1
4.330892542E0,1.584455109E0,1.209275299E1,6.512507172E0,1.382598722E1
4.340850542E0,1.337768097E0,1.182660645E1,6.469546509E0,1.354670718E1
4.350809542E0,1.146465912E0,1.157812317E1,6.320306854E0,1.324060418E1
4.360768542E0,1.120719452E0,1.128039230E1,6.106850739E0,1.287621406E1
4.370727542E0,1.256187744E0,1.092009155E1,5.860313416E0,1.245671227E1
4.380686542E0,1.219514008E0,1.056098831E1,5.591173096E0,1.201178193E1
4.390645542E0,9.770182800E-1,1.011701157E1,5.299579468E0,1.146272351E1
4.400604542E0,8.011340332E-1,9.614356842E0,5.112767944E0,1.091870273E1
4.410563542E0,4.921765137E-1,9.027427368E0,5.004393311E0,1.033347159E1
4.420521542E0,2.103126526E-1,8.399183807E0,4.672383728E0,9.613620012E0
4.430480542E0,1.330732727E-1,7.755222931E0,4.296964417E0,8.867079249E0
4.440439542E0,1.275347900E-1,7.165898438E0,3.891008606E0,8.155140312E0
4.450398542E0,1.347198486E-1,6.568041687E0,3.427572327E0,7.409829492E0
4.460357542E0,1.047821045E-1,6.042185211E0,2.958447876E0,6.728402132E0
4.470316542E0,3.742218018E-3,5.537434845E0,2.624492340E0,6.127900024E0
4.480275542E0,7.229965210E-2,5.052892456E0,2.469115448E0,5.624364898E0
4.490234542E0,2.775228882E-1,4.615352325E0,1.988464966E0,5.033139076E0
4.500192542E0,2.998265076E-1,4.142485657E0,1.675465851E0,4.478534266E0
4.510151542E0,1.139131165E-1,3.615731049E0,1.487456818E0,3.911395531E0
4.520110542E0,-9.535171509E-2,3.173550568E0,1.163380737E0,3.381415369E0
4.530069542E0,-2.040257263E-1,2.809507599E0,8.946894836E-1,2.955575869E0
4.540028542E0,-3.011737061E-1,2.509980469E0,5.200186157E-1,2.580915906E0
4.549987542E0,-3.118016052E-1,2.161355438E0,1.067280579E-1,2.186336765E0
4.559946542E0,-3.629951477E-1,1.821562042E0,-1.619631958E-1,1.864426407E0
4.569905542E0,-3.417393494E-1,1.529219971E0,-3.110531616E-1,1.597514811E0
4.579863542E0,-2.225871277E-1,1.318607941E0,-4.776567078E-1,1.420009810E0
4.589822542E0,-2.844085693E-2,1.109043732E0,-5.448669434E-1,1.235988215E0
4.599781542E0,2.739303589E-2,9.521699524E-1,-6.661148071E-1,1.162362651E0
4.609740542E0,-9.086105347E-2,8.479866028E-1,-8.054750061E-1,1.173084394E0
4.619699542E0,-2.429447937E-1,6.584806824E-1,-7.926017761E-1,1.058695687E0
4.629658542E0,-5.233117676E-1,3.841012573E-1,-8.843609619E-1,1.097033861E0
4.639617542E0,-9.889933777E-1,1.827699280E-1,-1.245110779E0,1.600566649E0
4.649576542E0,-1.353186035E0,5.763015747E-2,-1.457219696E0,1.989452921E0
4.659534542E0,-1.502874756E0,-5.358856201E-2,-1.441951447E0,2.083441441E0
4.669493542E0,-1.423689423E0,-6.376739502E-2,-1.498384094E0,2.067876386E0
4.679452542E0,-1.158441010E0,1.237925720E-1,-1.486259308E0,1.888458870E0
4.689411542E0,-7.670050049E-1,3.772155762E-1,-1.135089569E0,1.420921039E0
4.699370542E0,-6.460565186E-1,6.397695923E-1,-8.898994446E-1,1.272248080E0
4.709329542E0,-5.159770203E-1,8.657995605E-1,-8.562194824E-1,1.322479855E0
4.719288542E0,-3.014730835E-1,1.036145325E0,-4.816983032E-1,1.181742954E0
4.729246542E0,-1.646575928E-3,1.174906769E0,-1.125659180E-1,1.180287979E0
4.739205542E0,2.309696960E-1,1.389560394E0,7.933502197E-2,1.410857589E0
4.749164542E0,4.043092346E-1,1.523831177E0,2.621049500E-1,1.598194737E0
4.759123542E0,4.138893127E-1,1.573976898E0,2.013313293E-1,1.639890833E0
4.769082542E0,4.119433594E-1,1.645378418E0,3.433859253E-1,1.730572554E0
4.779041542E0,4.258644104E-1,1.766775970E0,7.791297913E-1,1.977346974E0
4.789000542E0,5.640270996E-1,2.174977112E0,1.370849304E0,2.632086591E0
4.798959542E0,1.220861206E0,2.965333557E0,2.030228119E0,3.795461949E0
4.808917542E0,1.857487335E0,3.913761292E0,2.431393890E0,4.967842882E0
4.818876542E0,2.025438080E0,4.855303345E0,2.966381378E0,6.039518894E0
4.828835542E0,2.054178314E0,5.887556763E0,3.697161713E0,7.249274302E0
4.838794542E0,2.140698395E0,6.993457031E0,3.483855286E0,8.101128225E0
4.848753542E0,2.435285797E0,7.807015228E0,3.241658936E0,8.797070896E0
4.858712542E0,2.853067017E0,8.510252838E0,3.188369751E0,9.525234718E0
4.868671542E0,2.611918488E0,9.175918579E0,2.991229706E0,9.998352620E0
4.878630542E0,2.775528259E0,1.018242554E1,3.454815674E0,1.110500330E1
4.888588542E0,3.096311188E0,1.168829407E1,4.503684540E0,1.290296616E1
4.898547542E0,2.875670013E0,1.342064163E1,5.058430939E0,1.462774157E1
4.908506542E0,2.612816620E0,1.489477615E1,5.627547455E0,1.613537907E1
4.918465542E0,2.291584625E0,1.613794098E1,6.164181519E0,1.742646358E1
4.928424542E0,1.670675812E0,1.716061432E1,6.871460724E0,1.856057149E1
4.938383542E0,1.559457092E0,1.812790283E1,7.508236542E0,1.968314973E1
4.948342542E0,1.577719116E0,1.900028870E1,7.983198853E0,2.066958229E1
4.958301542E0,1.374741211E0,1.971550140E1,8.503516846E0,2.151512742E1
4.968259542E0,8.219407654E-1,2.008149033E1,8.960965576E0,2.200547078E1
4.978218542E0,1.393601990E-1,2.004391846E1,9.339977417E0,2.211364435E1
4.988177542E0,-5.126838684E-1,1.963377136E1,9.365723877E0,2.175924186E1
4.998136542E0,-1.253792725E0,1.877725250E1,9.163344727E0,2.093141405E1
5.008095542E0,-2.273621979E0,1.762509842E1,8.974287872E0,1.990857338E1
5.018054542E0,-2.809956665E0,1.663221313E1,8.575217743E0,1.892249269E1
5.028013542E0,-2.714604950E0,1.601684280E1,8.248746643E0,1.821949930E1
5.037972542E0,-2.270029449E0,1.577973587E1,7.956254883E0,1.781726942E1
5.047930542E0,-2.115999756E0,1.558499084E1,7.594606934E0,1.746560761E1
5.057889542E0,-2.001038818E0,1.516197052E1,7.394323425E0,1.698721653E1
5.067848542E0,-2.319426727E0,1.455543182E1,6.982080688E0,1.630919332E1
5.077807542E0,-2.636168060E0,1.363155304E1,6.513405304E0,1.533600564E1
5.087766542E0,-2.993025970E0,1.272399033E1,6.117328949E0,1.443190382E1
5.097724792E0,-2.812351685E0,1.215921478E1,5.758525085E0,1.374468760E1
5.107683792E0,-2.521656189E0,1.174203232E1,5.220543823E0,1.309534844E1
5.117642792E0,-2.316133575E0,1.129057114E1,4.782404938E0,1.247849624E1
5.127600792E0,-2.148332520E0,1.085243225E1,4.598287811E0,1.198060387E1
5.137559792E0,-1.440903625E0,9.049431610E0,5.485043793E0,1.067961241E1
5.147518792E0,-1.982627106E0,8.439899139E0,4.490661621E0,9.763644274E0
5.157477792E0,-1.587598572E0,8.522826691E0,4.567002869E0,9.798803969E0
5.167436792E0,-1.348545685E0,8.676557007E0,4.107608185E0,9.694001339E0
5.177395792E0,-1.160087585E-1,9.587712250E0,4.602778473E0,1.063594161E1
5.187354792E0,1.113534393E0,1.068343369E1,4.673431549E0,1.171395222E1
5.197313792E0,1.239871674E0,1.159189453E1,4.476890259E0,1.248806818E1
5.207271792E0,1.065933380E0,1.207374252E1,4.276606750E0,1.285304780E1
5.217230792E0,3.849993896E-1,1.146495850E1,4.155957642E0,1.220104429E1
5.227189792E0,-4.251159668E-1,1.046458878E1,3.995341644E0,1.120942000E1
5.237148792E0,-9.957293701E-1,9.364077301E0,4.356241150E0,1.037565697E1
5.247107792E0,-2.236798553E0,7.834108887E0,4.472399597E0,9.294024315E0
5.257066792E0,-2.861000519E0,7.731123047E0,4.035757599E0,9.178394573E0
5.267025792E0,-2.700833588E0,7.563471680E0,4.710254974E0,9.310591165E0
5.276984792E0,-2.876867523E0,7.639812927E0,4.898862762E0,9.520607369E0
5.286942792E0,-3.651955719E0,7.433242493E0,4.848717041E0,9.596870921E0
5.296901792E0,-4.799619141E0,7.193441162E0,4.555776215E0,9.774304915E0
5.306860792E0,-4.882846069E0,6.799011383E0,3.707789612E0,9.155132185E0
5.316819792E0,-3.494333496E0,6.649472351E0,3.201692047E0,8.165579042E0
5.326778792E0,-3.326083374E0,6.110443268E0,3.063379669E0,7.601621047E0
5.336737792E0,-3.588936768E0,6.036946106E0,3.423680420E0,7.813243438E0
5.346696792E0,-2.677631836E0,7.495213623E0,4.026476898E0,8.919666794E0
5.356655792E0,-7.156617737E-1,9.191635895E0,5.219046936E0,1.059418676E1
5.366613792E0,1.761387177E0,9.192534027E0,5.267246704E0,1.074006771E1
5.376572792E0,3.326682129E0,8.919052734E0,4.576882324E0,1.056239402E1
5.386531792E0,2.684068451E0,8.368497620E0,5.177882538E0,1.020031585E1
5.396490792E0,2.028880920E0,7.633226624E0,5.676046600E0,9.726253723E0
5.406449792E0,1.484762421E0,7.319628754E0,4.714595947E0,8.832264686E0
5.416408792E0,9.235794067E-1,7.539222107E0,3.619772644E0,8.414013483E0
5.426367792E0,5.355862427E-1,7.672894135E0,2.904110870E0,8.221558062E0
5.436326792E0,4.701722717E-1,7.706723785E0,2.512674866E0,8.119617506E0
5.446284792E0,8.041278076E-1,7.529791718E0,2.492766266E0,7.972343978E0
5.456243792E0,1.346899109E0,7.282505951E0,2.643502808E0,7.863659277E0
5.466202792E0,1.889820099E0,7.432943115E0,2.826871490E0,8.173815864E0
5.476161792E0,2.086960144E0,7.799680481E0,3.116519165E0,8.654658281E0
5.486120792E0,1.927391968E0,8.073760529E0,3.394341431E0,8.967831545E0
5.496079792E0,1.819915466E0,8.313112793E0,3.538491669E0,9.216336577E0
5.506038792E0,1.536255341E0,8.483608246E0,3.349434814E0,9.249346080E0
5.515997792E0,1.373843079E0,8.627159729E0,2.758463745E0,9.161028983E0
5.525955792E0,1.396595764E0,8.586444397E0,2.277214508E0,8.992397513E0
5.535914792E0,1.429527283E0,8.497828674E0,2.296374664E0,8.917958120E0
5.545873792E0,1.384770355E0,8.511450348E0,2.586920471E0,9.003029128E0
5.555832792E0,1.319805450E0,8.590935059E0,2.947969666E0,9.178048636E0
5.565791792E0,1.269360352E0,8.596174164E0,3.306923218E0,9.297377433E0
5.575750792E0,1.338516541E0,8.656648407E0,3.624113617E0,9.479630145E0
5.585709792E0,1.426982574E0,8.795409851E0,3.732338562E0,9.660531293E0
5.595668792E0,1.519340515E0,8.896749115E0,3.601959686E0,9.717749431E0
5.605626792E0,1.450034637E0,8.697064362E0,3.530857544E0,9.497814694E0
5.615585792E0,1.181942139E0,8.367150421E0,3.576662292E0,9.175985317E0
5.625544792E0,7.824229431E-1,8.212821350E0,3.715723114E0,9.048161054E0
5.635503792E0,5.210664368E-1,8.203241272E0,3.696712646E0,9.012788802E0
5.645462792E0,5.659730530E-1,8.311017151E0,3.552861786E0,9.056277295E0
5.655421792E0,6.322851562E-1,8.381071472E0,3.396287384E0,9.065148181E0
5.665380792E0,5.057981873E-1,8.446635132E0,3.199895782E0,9.046591064E0
5.675339792E0,5.468128967E-1,8.642727356E0,3.050656128E0,9.181625308E0
5.685297792E0,7.818241882E-1,8.749156036E0,2.964734802E0,9.270848551E0
5.695256792E0,9.497749329E-1,8.718320160E0,3.084785156E0,9.296616497E0
5.705215792E0,9.765692139E-1,8.731043701E0,3.330274658E0,9.395506417E0
5.715174792E0,9.280700684E-1,8.850944366E0,3.581302643E0,9.593031786E0
5.725133792E0,8.988807678E-1,8.987310791E0,3.798051910E0,9.798211072E0
5.735092792E0,9.460327148E-1,9.027277679E0,3.869752808E0,9.867203605E0
5.745051792E0,9.645941162E-1,9.108558655E0,3.802093506E0,9.917267648E0
5.755010792E0,8.593629456E-1,9.107810211E0,3.725602570E0,9.877794593E0
5.764968792E0,6.747967529E-1,9.135802002E0,3.705843658E0,9.881877661E0
5.774927792E0,6.981481934E-1,9.271270294E0,3.579207001E0,9.962659611E0
5.784886792E0,6.797364807E-1,9.241332550E0,3.430117035E0,9.880788018E0
5.794845792E0,6.586303711E-1,9.198671265E0,3.342399445E0,9.809229381E0
5.804804792E0,7.497908020E-1,9.130113831E0,3.123255157E0,9.678630460E0
5.814763792E0,6.590794373E-1,8.988059235E0,1.794917450E0,9.189196002E0
5.824722792E0,3.059637451E-1,8.710985413E0,2.561623077E0,9.084976250E0
5.834681792E0,2.142045593E-1,8.801696777E0,2.447111206E0,9.138057945E0
5.844639792E0,1.576222229E-1,8.988657990E0,2.814896393E0,9.420427746E0
5.854598792E0,-4.685256958E-2,9.040749664E0,3.472329254E0,9.684751938E0
5.864557792E0,7.768844604E-2,9.223968658E0,3.761378174E0,9.961706635E0
5.874516792E0,1.234931946E-1,9.323361969E0,4.184997253E0,1.022029995E1
5.884475792E0,2.574645996E-2,9.390272827E0,4.260889435E0,1.031179254E1
5.894434792E0,1.225950623E-1,9.445208588E0,3.885769501E0,1.021401975E1