"Time (s)","Acceleration x (m/s^2)","Acceleration y (m/s^2)","Acceleration z (m/s^2)","Absolute acceleration (m/s^2)"
-1.398874971E-3,-1.891466675E0,9.026229858E-2,1.009979736E1,1.027578222E1
8.560125018E-3,-2.023043060E0,8.577163696E-2,9.982740784E0,1.018602835E1
1.852012501E-2,-2.016456757E0,7.125183105E-2,1.016341507E1,1.036176532E1
2.847912500E-2,-2.192790070E0,4.490661621E-2,1.061742096E1,1.084158534E1
3.843812505E-2,-2.145787811E0,1.215472412E-1,1.093131821E1,1.114059679E1
4.839712504E-2,-2.168390808E0,2.329156494E-1,1.091066116E1,1.112648621E1
5.835612502E-2,-2.375559998E0,2.868035889E-1,1.090063202E1,1.116016667E1
6.831512501E-2,-1.938319244E0,5.354365540E-1,1.107187592E1,1.125300893E1
7.827412500E-2,-1.136436768E0,5.043013000E-1,1.123518631E1,1.130377016E1
8.823412500E-2,-7.161108398E-1,1.059796143E-1,1.157363251E1,1.159625008E1
9.819312504E-2,-1.196012878E-1,2.350112915E-2,1.161315033E1,1.161378996E1
1.081521250E-1,-5.628295898E-1,-1.871109009E-2,1.169712570E1,1.171067363E1
1.181111250E-1,-3.382965088E-1,2.586621094E-1,1.169143753E1,1.169919066E1
1.280701250E-1,-1.235231323E0,7.828720093E-1,1.060230240E1,1.070268663E1
1.380291250E-1,-2.430046692E0,1.224753113E0,1.016476227E1,1.052271539E1
1.479881250E-1,-2.815495148E0,1.417402496E0,1.030427216E1,1.077562376E1
1.579481250E-1,-2.665057983E0,1.550625458E0,1.022059616E1,1.067555897E1
1.679071250E-1,-2.420616302E0,1.685644684E0,1.024439667E1,1.066060244E1
1.778661250E-1,-2.327659607E0,1.637893982E0,1.021685394E1,1.060588518E1
1.878251250E-1,-2.642155609E0,1.642234955E0,1.011835876E1,1.058579737E1
1.977841250E-1,-3.033292236E0,1.751507721E0,9.914782104E0,1.051530053E1
2.077431250E-1,-3.468287659E0,2.139650574E0,9.765243073E0,1.058145057E1
2.177021250E-1,-3.980971527E0,2.500849457E0,9.499844971E0,1.059950172E1
2.276621250E-1,-4.631668396E0,2.775079193E0,8.775052185E0,1.030315279E1
2.376211250E-1,-4.699926453E0,2.909349976E0,7.779771881E0,9.543504412E0
2.475801250E-1,-4.193529510E0,2.768642578E0,5.194048920E0,7.226978322E0
2.575391250E-1,-3.510050812E0,3.349883881E0,4.459676056E0,6.590211623E0
2.674981250E-1,-2.971919861E0,3.999832306E0,6.888974304E0,8.502289874E0
2.774571250E-1,-2.343077545E0,4.539460144E0,7.681875458E0,9.225395457E0
2.874161250E-1,-1.634750519E0,4.656217346E0,7.161258087E0,8.696918226E0
2.973761250E-1,-1.410367126E0,3.906426544E0,8.788524170E0,9.720466083E0
3.073351250E-1,-1.306333466E0,3.637585602E0,9.483678589E0,1.024103001E1
3.172941250E-1,-2.092798004E0,3.190315704E0,1.016266663E1,1.085530795E1
3.272531250E-1,-2.370769958E0,2.870879974E0,1.087428680E1,1.149402521E1
3.372121250E-1,-2.819087677E0,2.789000244E0,9.628277893E0,1.041294929E1
3.471711250E-1,-2.382595367E0,3.959116974E0,6.876101074E0,8.284451333E0
3.571301250E-1,-3.458258514E0,6.293213196E0,8.386460266E0,1.104068839E1
3.670891250E-1,-6.181096344E0,6.405629425E0,8.158634033E0,1.207482296E1
3.770491250E-1,-5.215304718E0,6.910828857E0,6.368806000E0,1.074805325E1
3.870081250E-1,-4.559518433E0,7.390581207E0,5.554948425E0,1.030860567E1
3.969671250E-1,-5.332510986E0,6.949149170E0,5.942193146E0,1.058470628E1
4.069261250E-1,-5.432952118E0,6.425388336E0,7.223528595E0,1.108972269E1
4.168851250E-1,-4.849764862E0,7.027586060E0,8.562793579E0,1.209250259E1
4.268441250E-1,-4.706512756E0,8.267757111E0,9.981094208E0,1.378873858E1
4.368031250E-1,-4.546944580E0,8.663085022E0,9.911788330E0,1.392721419E1
4.467631250E-1,-3.573518829E0,8.681945801E0,9.339977417E0,1.324316419E1
4.567221250E-1,-1.897903290E0,8.770262146E0,9.125024414E0,1.279787504E1
4.666811250E-1,-4.659809875E-1,8.990903320E0,9.770931244E0,1.328625523E1
4.766401250E-1,-6.867718506E-1,9.387279053E0,1.086889801E1,1.437795561E1
4.865991250E-1,-1.630559235E0,1.024334885E1,1.083267334E1,1.499772418E1
4.965581250E-1,-1.922751617E0,1.245245499E1,1.059496765E1,1.646250128E1
5.065171250E-1,-2.043400726E0,1.435350174E1,1.250649261E1,1.914708480E1
5.164771250E-1,-1.951940918E0,1.477682144E1,1.587553665E1,2.177606919E1
5.264361250E-1,-1.476978607E0,1.449465820E1,1.816203186E1,2.328381377E1
5.363951250E-1,-9.078620911E-1,1.391386597E1,1.827878906E1,2.298986754E1
5.463541250E-1,-4.703219604E-1,1.351719086E1,1.723411148E1,2.190776689E1
5.563131250E-1,-5.011578369E-1,1.310629532E1,1.618449417E1,2.083180232E1
5.662721250E-1,-1.292262726E0,1.216984268E1,1.520912247E1,1.952158856E1
5.762311250E-1,-2.052831116E0,1.106753494E1,1.404364609E1,1.799801213E1
5.861911250E-1,-2.068847809E0,1.051608170E1,1.339250015E1,1.715305121E1
5.961501250E-1,-1.791624298E0,1.016880386E1,1.261771133E1,1.630402186E1
6.061091250E-1,-1.204694824E0,1.009006760E1,1.215307755E1,1.584165545E1
6.160681250E-1,-6.589297485E-1,9.931696930E0,1.219723572E1,1.574310489E1
6.260271251E-1,-1.065933380E0,9.079069977E0,1.203676941E1,1.511454741E1
6.359861250E-1,-1.890269165E0,8.099357300E0,1.146555725E1,1.416445231E1
6.459451250E-1,-2.752476196E0,7.357200623E0,1.069166656E1,1.326711197E1
6.559051250E-1,-2.999911652E0,6.500083008E0,9.819280701E0,1.215190613E1
6.658641250E-1,-2.696791992E0,5.469176788E0,8.938512268E0,1.082042436E1
6.758231250E-1,-2.031275940E0,4.546345825E0,7.853867798E0,9.299386092E0
6.857821250E-1,-1.650018768E0,3.693569183E0,6.606661377E0,7.746805135E0
6.957411250E-1,-1.665436707E0,2.838547211E0,5.315895538E0,6.252181624E0
7.057001250E-1,-1.877695312E0,2.061363373E0,4.420607300E0,5.226540686E0
7.156591250E-1,-1.910776520E0,1.300645294E0,3.971391449E0,4.595072919E0
7.256191250E-1,-1.944456482E0,3.248245239E-1,3.661386108E0,4.158385530E0
7.355781251E-1,-2.281405792E0,-7.795788574E-1,2.542612610E0,3.503917018E0
7.455371250E-1,-2.363884277E0,-1.639241180E0,9.351054382E-1,3.024811185E0
7.554961250E-1,-2.176623688E0,-2.295476532E0,-3.745211792E-1,3.185462180E0
7.654551250E-1,-1.856439514E0,-2.928959198E0,-1.276695099E0,3.695283484E0
7.754141250E-1,-1.501527557E0,-3.435056763E0,-2.081571350E0,4.288022767E0
7.853731251E-1,-1.209185486E0,-3.601061554E0,-2.880609741E0,4.767356326E0
7.953331250E-1,-1.021026764E0,-3.669169922E0,-3.638932800E0,5.267554982E0
8.052921250E-1,-9.048683167E-1,-3.721860352E0,-4.216282196E0,5.696320453E0
8.152511250E-1,-7.274871826E-1,-3.844904480E0,-4.595743103E0,6.036007184E0
8.252101250E-1,-5.574407959E-1,-4.087849274E0,-4.635111237E0,6.205280663E0
8.351691250E-1,-4.360432434E-1,-4.267475739E0,-4.592749329E0,6.284491171E0
8.451281250E-1,-4.761598206E-1,-4.296365662E0,-4.682712250E0,6.372854940E0
8.550871250E-1,-5.453160095E-1,-4.233945465E0,-4.765490112E0,6.397934023E0
8.650471250E-1,-6.298901367E-1,-4.063899078E0,-4.733307037E0,6.270265769E0
8.750061250E-1,-9.208850098E-1,-3.722010040E0,-4.342769165E0,5.793188411E0
8.849651250E-1,-9.160949707E-1,-3.320544891E0,-3.821403351E0,5.144742165E0
8.949241251E-1,-6.089337158E-1,-3.059936829E0,-3.693569183E0,4.834921610E0
9.048831250E-1,-4.074526978E-1,-2.896476746E0,-3.780089264E0,4.779609825E0
9.148421250E-1,-3.076103210E-1,-3.086282043E0,-3.586392059E0,4.741515471E0
9.248011250E-1,-1.974394226E-1,-3.400179291E0,-2.845432892E0,4.438095298E0
9.347611250E-1,-1.375639343E-1,-3.559597778E0,-2.382595367E0,4.285606242E0
9.447201250E-1,-3.095562744E-1,-3.689677277E0,-2.463576965E0,4.447331217E0
9.546791250E-1,-6.881190491E-1,-3.821852417E0,-2.007924500E0,4.371707277E0
9.646381250E-1,-1.500928802E0,-3.988905029E0,-1.165476379E0,4.418425714E0
9.745971250E-1,-2.177222443E0,-3.698209534E0,-9.445358276E-1,4.394223395E0
9.845561250E-1,-2.019899597E0,-2.841540985E0,-5.304968262E-1,3.526439626E0
9.945151250E-1,-2.314037933E0,-2.062860260E0,8.274792480E-1,3.208564463E0
1.004475125E0,-3.364403687E0,-1.103205872E0,2.446961517E0,4.303939594E0
1.014434125E0,-4.396357727E0,1.035546570E0,4.564907227E0,6.421736210E0
1.024393125E0,-5.192701721E0,3.678001556E0,6.611750793E0,9.176442403E0
1.034352125E0,-5.135071564E0,6.802154846E0,8.014783173E0,1.169935980E1
1.044311125E0,-3.552712097E0,1.020428009E1,9.267827454E0,1.423522817E1
1.054270125E0,-1.410516815E0,1.354892487E1,9.993368683E0,1.689468379E1
1.064229125E0,4.819976807E-2,1.690374847E1,1.107142685E1,2.020681885E1
1.074189125E0,1.106199646E-1,2.016082535E1,1.330957260E1,2.415814228E1
1.084148125E0,-5.233117676E-1,2.359573242E1,1.683264633E1,2.898914325E1
1.094107125E0,-5.074447632E-2,2.727493149E1,1.994242950E1,3.378794100E1
1.104066125E0,5.137316895E-1,3.051748856E1,2.107033401E1,3.708827313E1
1.114025125E0,1.469344482E0,3.340962433E1,2.175066925E1,3.989302676E1
1.123984125E0,1.986519012E0,3.509676590E1,2.173974197E1,4.133213780E1
1.133944125E0,1.872456207E0,3.578772903E1,2.176967972E1,4.193073570E1
1.143903125E0,1.429227905E0,3.561019821E1,2.146536255E1,4.160397455E1
1.153862125E0,1.008303223E0,3.449531662E1,2.070943451E1,4.024703991E1
1.163821125E0,6.050418091E-1,3.262151321E1,1.962434097E1,3.807419019E1
1.173780125E0,3.734733582E-1,3.013174072E1,1.831022369E1,3.526082207E1
1.183739125E0,5.435197449E-1,2.715383331E1,1.692724960E1,3.200246641E1
1.193698125E0,4.885839844E-1,2.398701874E1,1.561642548E1,2.862671003E1
1.203658125E0,-1.553768921E-1,2.114457962E1,1.454480392E1,2.566454189E1
1.213617125E0,-1.029708710E0,1.864148483E1,1.394934219E1,2.330556595E1
1.223576125E0,-1.957928467E0,1.628343842E1,1.343695770E1,2.120225655E1
1.233535125E0,-2.633473663E0,1.414558411E1,1.280976196E1,1.926454606E1
1.243494125E0,-2.929408264E0,1.201446579E1,1.230965195E1,1.744867766E1
1.253453125E0,-3.270848236E0,9.968520355E0,1.125599304E1,1.538724230E1
1.263413125E0,-3.558849335E0,8.105045471E0,1.005848328E1,1.339889012E1
1.273372125E0,-3.637585602E0,6.255641327E0,9.187294922E0,1.169493332E1
1.283331125E0,-3.608396301E0,4.352049866E0,8.419840851E0,1.014172480E1
1.293290125E0,-3.668122101E0,2.377056885E0,7.263645172E0,8.477385232E0
1.303249125E0,-3.815116425E0,6.527925110E-1,5.772895203E0,6.950364769E0
1.313208125E0,-3.753893738E0,-7.738906860E-1,4.727319489E0,6.085899649E0
1.323167125E0,-3.726351013E0,-2.212848358E0,3.829336853E0,5.783269876E0
1.333127125E0,-3.477418671E0,-3.518583069E0,2.818039856E0,5.693348404E0
1.343086125E0,-2.886896667E0,-4.640649719E0,1.988614655E0,5.815874004E0
1.353045125E0,-2.493065643E0,-5.705834656E0,1.353335724E0,6.372083098E0
1.363004125E0,-2.246378632E0,-6.612199860E0,6.008505249E-1,7.009167233E0
1.372963125E0,-2.097288666E0,-7.337142334E0,-2.002835083E-1,7.633635494E0
1.382922125E0,-1.889071655E0,-8.060438232E0,-1.025218048E0,8.342081770E0
1.392881125E0,-1.753303986E0,-8.763825531E0,-1.838626556E0,9.124651249E0
1.402841125E0,-1.606459351E0,-9.375603333E0,-2.784359894E0,9.911372736E0
1.412800125E0,-1.429227905E0,-9.884395294E0,-3.558250580E0,1.060212761E1
1.422759125E0,-1.370849304E0,-1.043060944E1,-4.193978577E0,1.132547117E1
1.432718125E0,-1.269959106E0,-1.097457825E1,-4.817731476E0,1.205258065E1
1.442677125E0,-9.713301086E-1,-1.134520752E1,-5.372477875E0,1.259050175E1
1.452636125E0,-6.358776855E-1,-1.145687531E1,-5.653144226E0,1.279149607E1
1.462596125E0,-2.591111755E-1,-1.125090363E1,-5.731730804E0,1.262943819E1
1.472555125E0,1.224453735E-1,-1.096050751E1,-5.517226868E0,1.227141027E1
1.482514125E0,5.722599792E-1,-1.069810318E1,-5.177732849E0,1.189898359E1
1.492473125E0,1.034049683E0,-1.044063858E1,-4.641996918E0,1.147276462E1
1.502432125E0,1.094673615E0,-1.026116180E1,-3.826642456E0,1.100604127E1
1.512391125E0,1.129401398E0,-9.977351990E0,-2.520458679E0,1.035257515E1
1.522350125E0,1.105451202E0,-9.764494629E0,-1.103804626E0,9.888668382E0
1.532310125E0,9.729766846E-1,-9.521400146E0,1.751358032E-1,9.572586742E0
1.542269125E0,8.973838806E-1,-9.083261261E0,1.816173248E0,9.306418120E0
1.552228125E0,6.727011108E-1,-8.129744110E0,3.741020508E0,8.974435944E0
1.562187125E0,-2.350112915E-1,-6.601422272E0,5.892646179E0,8.851965054E0
1.572146125E0,-3.109633484E0,-3.490441589E0,9.357940063E0,1.046059487E1
1.582105125E0,-6.016438751E0,2.250270538E0,1.332603836E1,1.479339552E1
1.592064125E0,-6.259982300E0,9.040599976E0,1.659044998E1,1.990384026E1
1.602024125E0,-4.796475677E0,1.523816208E1,1.947285599E1,2.518729606E1
1.611983125E0,-3.142115936E0,2.054926758E1,2.237307495E1,3.054013381E1
1.621941625E0,-2.991229706E0,2.578837280E1,2.363974091E1,3.511160744E1
1.631900625E0,-2.908451843E0,3.110217270E1,2.410811691E1,3.945890951E1
1.641859625E0,-1.630559235E0,3.553939545E1,2.464939133E1,4.328163404E1
1.651818625E0,6.129753113E-1,3.833453293E1,2.405916870E1,4.526318319E1
1.661778625E0,2.251767426E0,4.005101349E1,2.280283127E1,4.614242356E1
1.671737625E0,2.319127350E0,4.067267075E1,2.110146927E1,4.587936903E1
1.681696625E0,1.769021301E0,4.044873642E1,1.989168503E1,4.510996395E1
1.691655625E0,1.430275726E0,3.968412643E1,1.931568283E1,4.415847804E1
1.701614625E0,8.006849670E-1,3.772185699E1,1.874207565E1,4.212890921E1
1.711573625E0,-5.987548828E-3,3.482238647E1,1.802701263E1,3.921188366E1
1.721532625E0,-2.890489197E-1,3.129362457E1,1.677980621E1,3.550966607E1
1.731492625E0,-2.501298523E-1,2.742985931E1,1.573093735E1,3.162154545E1
1.741451625E0,-3.465293884E-1,2.378119675E1,1.465183136E1,2.793459439E1
1.751410625E0,-8.644523621E-1,2.053759186E1,1.344489120E1,2.456226897E1
1.761369625E0,-1.374292145E0,1.760204636E1,1.244287491E1,2.159967247E1
1.771328625E0,-1.745220795E0,1.492261826E1,1.143876297E1,1.888321025E1
1.781287625E0,-2.041604462E0,1.260468842E1,1.043075912E1,1.648778502E1
1.791247625E0,-2.517913971E0,1.055604858E1,9.786947937E0,1.461350069E1
1.801206625E0,-3.062331848E0,8.601562958E0,9.068891144E0,1.286893734E1
1.811165625E0,-3.357817383E0,6.722221069E0,8.205636292E0,1.112634983E1
1.821124625E0,-3.481909332E0,4.962480469E0,7.372768250E0,9.545030993E0
1.831083625E0,-3.269201660E0,3.315455475E0,6.706952820E0,8.164749882E0
1.841042625E0,-3.072959747E0,1.721420288E0,6.086792450E0,7.032454177E0
1.851001625E0,-2.944826202E0,1.933978271E-1,5.359005890E0,6.117871216E0
1.860961625E0,-2.782264252E0,-1.242416382E0,4.575086060E0,5.496908703E0
1.870920625E0,-2.628084869E0,-2.625989227E0,3.827690277E0,5.334216190E0
1.880879625E0,-2.382295990E0,-3.879931641E0,2.900368652E0,5.398272135E0
1.890838625E0,-2.259700928E0,-4.747228088E0,1.775757294E0,5.549390667E0
1.900797625E0,-2.218087463E0,-5.315895538E0,7.755372620E-1,5.812066364E0
1.910756625E0,-2.106269989E0,-5.703439636E0,9.131011963E-2,6.080619581E0
1.920716625E0,-1.917662201E0,-5.990093536E0,-4.213737488E-1,6.303665975E0
1.930675625E0,-1.502276001E0,-6.308631134E0,-7.848179626E-1,6.532350205E0
1.940634625E0,-1.243763580E0,-6.577621765E0,-1.128952332E0,6.788710430E0
1.950593625E0,-1.112935638E0,-6.842720490E0,-1.586550751E0,7.111862816E0
1.960552625E0,-1.025517426E0,-7.164551239E0,-2.038161621E0,7.519081276E0
1.970511625E0,-9.828561401E-1,-7.571854248E0,-2.384990387E0,7.999197590E0
1.980470625E0,-9.256750488E-1,-8.038733368E0,-2.810705109E0,8.566105980E0
1.990430625E0,-7.593708801E-1,-8.453071747E0,-3.328179016E0,9.116350238E0
2.000389625E0,-5.794450378E-1,-8.728498993E0,-4.005520477E0,9.621156142E0
2.010348625E0,-3.915856934E-1,-8.789721680E0,-4.999303894E0,1.011956452E1
2.020307625E0,-4.460723877E-2,-8.717721405E0,-5.694907379E0,1.041309879E1
2.030266625E0,3.725752258E-1,-8.569379883E0,-5.881120148E0,1.040003164E1
2.040225625E0,7.728428650E-1,-8.587342529E0,-5.372926941E0,1.015913784E1
2.050184625E0,9.466314697E-1,-8.606203308E0,-4.772226105E0,9.886201926E0
2.060144625E0,9.403445435E-1,-8.582402802E0,-4.208199005E0,9.604729282E0
2.070103625E0,8.445437622E-1,-8.800648956E0,-3.380420380E0,9.465300743E0
2.080062625E0,6.688092041E-1,-8.984167328E0,-2.769391022E0,9.425077982E0
2.090021625E0,3.141966248E-1,-8.912316742E0,-1.986668701E0,9.136463307E0
2.099980625E0,1.640588379E-1,-8.546926575E0,-2.538720703E-1,8.552269886E0
2.109939625E0,7.170089722E-2,-7.415878601E0,1.589544525E0,7.584658743E0
2.119898625E0,9.572593689E-1,-5.608087921E0,3.301235046E0,6.577624834E0
2.129858625E0,1.626667328E0,-3.298989716E0,5.052443390E0,6.249525098E0
2.139817625E0,9.806108093E-1,-2.993774414E-4,6.559210052E0,6.632106314E0
2.149776625E0,-1.050964508E0,4.752766571E0,1.037687119E1,1.146179620E1
2.159735625E0,-4.766687622E0,1.098176331E1,1.586520813E1,1.987524252E1
2.169694625E0,-8.315807190E0,1.821112976E1,1.985875351E1,2.819872315E1
2.179653625E0,-9.556277618E0,2.533451660E1,2.422113190E1,3.632937384E1
2.189613625E0,-9.356892242E0,3.100173157E1,2.845328110E1,4.310740073E1
2.199572625E0,-8.228688354E0,3.567965378E1,3.044878143E1,4.762223532E1
2.209531625E0,-6.364465027E0,3.869797714E1,3.025628174E1,4.953264009E1
2.219490625E0,-5.455106049E0,3.949896149E1,2.707075607E1,4.819493723E1
2.229449625E0,-4.482728119E0,3.910617828E1,2.323932358E1,4.571054793E1
2.239408625E0,-2.972069550E0,3.820280685E1,1.949905151E1,4.299419332E1
2.249367625E0,-1.411714325E0,3.671520035E1,1.709085938E1,4.052278801E1
2.259327625E0,-4.357438660E-1,3.483271500E1,1.563932785E1,3.818502956E1
2.269286625E0,-2.992277527E-1,3.240341675E1,1.492306732E1,3.567588671E1
2.279245625E0,-7.682025146E-1,2.957983841E1,1.468042191E1,3.303137543E1
2.289204625E0,-1.297352142E0,2.656720322E1,1.434167633E1,3.021891939E1
2.299163625E0,-1.686393127E0,2.340907059E1,1.415576294E1,2.740828583E1
2.309122625E0,-2.063009949E0,2.052322174E1,1.406954224E1,2.496819295E1
2.319082625E0,-2.511776733E0,1.800500839E1,1.358485016E1,2.269443772E1
2.329041625E0,-2.758763123E0,1.571297470E1,1.274674301E1,2.042027927E1
2.339000625E0,-2.820734253E0,1.356763596E1,1.149205215E1,1.800290393E1
2.348959625E0,-2.809657288E0,1.148741180E1,1.052057236E1,1.582836842E1
2.358918625E0,-2.739153900E0,9.379495239E0,9.717043304E0,1.378037828E1
2.368877625E0,-2.661615143E0,7.430548096E0,8.788075104E0,1.181217610E1
2.378836625E0,-2.584974518E0,5.623954926E0,7.775131531E0,9.937989363E0
2.388796625E0,-2.443368988E0,3.963158569E0,6.903344421E0,8.326634498E0
2.398755625E0,-2.335144043E0,2.330204315E0,6.190826111E0,7.014918231E0
2.408714625E0,-2.225122833E0,8.550219727E-1,5.436544647E0,5.936181592E0
2.418673625E0,-1.982477417E0,-4.297563171E-1,4.902155914E0,5.305284140E0
2.428632625E0,-1.826202393E0,-1.748963013E0,4.131558380E0,4.843930372E0
2.438591625E0,-1.724563751E0,-2.908152466E0,2.772534485E0,4.372461362E0
2.448550625E0,-1.610800323E0,-3.539689178E0,1.495689697E0,4.166673113E0
2.458510625E0,-1.559457092E0,-3.845652924E0,4.429289246E-1,4.173384581E0
2.468469625E0,-1.529669037E0,-4.076323242E0,-3.670367432E-1,4.369326551E0
2.478428625E0,-1.397344208E0,-4.148622894E0,-1.068927155E0,4.506245446E0
2.488387625E0,-1.085991669E0,-4.118086395E0,-1.593885498E0,4.547360162E0
2.498346625E0,-8.126600647E-1,-4.031416626E0,-1.922901306E0,4.539855265E0
2.508305625E0,-5.969586182E-1,-3.975283356E0,-2.248773651E0,4.606106847E0
2.518265625E0,-4.050576782E-1,-3.955524445E0,-2.702330475E0,4.807581029E0
2.528224625E0,-1.992356873E-1,-4.021088104E0,-3.126548309E0,5.097464932E0
2.538183625E0,7.634124756E-2,-4.136797485E0,-3.303031311E0,5.294236230E0
2.548142625E0,1.604663086E-1,-4.369264069E0,-3.573967896E0,5.647075744E0
2.558101625E0,1.522334290E-1,-4.653373260E0,-4.217629395E0,6.282153725E0
2.568060625E0,3.043171692E-1,-4.699327698E0,-4.691992950E0,6.647637746E0
2.578019625E0,5.298980713E-1,-4.692142639E0,-4.999154205E0,6.876666146E0
2.587979625E0,6.264472961E-1,-4.762646027E0,-5.271138611E0,7.131629242E0
2.597938625E0,7.197033691E-1,-4.789889374E0,-5.489534454E0,7.320929017E0
2.607897625E0,8.107141113E-1,-4.795577545E0,-5.454357605E0,7.307861400E0
2.617857292E0,8.310717773E-1,-4.874613190E0,-5.042114868E0,7.062255758E0
2.627816292E0,7.400610352E-1,-4.987777863E0,-4.587659912E0,6.817055215E0
2.637775292E0,5.804928589E-1,-5.059778137E0,-4.298012238E0,6.664175564E0
2.647734292E0,4.581971741E-1,-5.264103241E0,-4.003724213E0,6.629519979E0
2.657694292E0,3.288661194E-1,-5.481451263E0,-3.754642181E0,6.652202552E0
2.667653292E0,3.249742126E-1,-5.775140533E0,-3.331621857E0,6.675144988E0
2.677612292E0,3.335064697E-1,-6.267915802E0,-2.908451843E0,6.917881698E0
2.687571292E0,3.097059631E-1,-6.767876129E0,-2.499352570E0,7.221276089E0
2.697530292E0,3.948788452E-1,-7.057972870E0,-6.372248840E-1,7.097673273E0
2.707489292E0,-1.616638184E-2,-6.718478851E0,1.399140472E0,6.862638960E0
2.717449292E0,-7.520361328E-1,-5.246889038E0,2.880609741E0,6.032687246E0
2.727408292E0,-2.030078430E0,-2.275268555E0,5.252277832E0,6.073260068E0
2.737367292E0,-2.544259186E0,1.941762085E0,8.486901398E0,9.070346748E0
2.747326292E0,-2.409988403E0,7.494016113E0,1.332783463E1,1.547900182E1
2.757285292E0,-7.864645386E-1,1.492785736E1,1.823897186E1,2.358218706E1
2.767244292E0,3.415896606E-1,2.226904129E1,2.038790314E1,3.019426233E1
2.777203292E0,-2.763253784E-1,2.806004883E1,2.324097015E1,3.643604520E1
2.787163292E0,-2.556234283E0,3.179717743E1,2.603925110E1,4.117811827E1
2.797122292E0,-5.191504211E0,3.354239822E1,2.790571976E1,4.394056656E1
2.807081292E0,-5.698649597E0,3.494587967E1,2.867871231E1,4.556487302E1
2.817040292E0,-4.229305115E0,3.588248199E1,2.577011078E1,4.437947888E1
2.826999292E0,-2.024839325E0,3.635445053E1,2.233924530E1,4.271753654E1
2.836958292E0,-1.466949463E-1,3.609503998E1,1.950593719E1,4.102870966E1
2.846917292E0,1.199306030E0,3.480951324E1,1.745894394E1,3.896094546E1
2.856877292E0,2.093995514E0,3.280413345E1,1.605606125E1,3.658268841E1
2.866836292E0,2.146386566E0,3.032738388E1,1.493609024E1,3.387394249E1
2.876795292E0,1.309776306E0,2.743000900E1,1.394036087E1,3.079698961E1
2.886754292E0,7.185058594E-2,2.434582260E1,1.333531906E1,2.775887201E1
2.896713292E0,-1.101559296E0,2.138602753E1,1.312575485E1,2.511694740E1
2.906672292E0,-1.793719940E0,1.883009262E1,1.246577728E1,2.265359624E1
2.916631292E0,-2.044747925E0,1.676573547E1,1.160207336E1,2.049094889E1
2.926591292E0,-2.213297424E0,1.490615250E1,1.095960938E1,1.863344051E1
2.936550292E0,-2.161954193E0,1.333666626E1,1.010368927E1,1.687084022E1
2.946509292E0,-1.990859985E0,1.183558777E1,9.128317566E0,1.507882100E1
2.956468292E0,-1.893412628E0,1.022373962E1,8.253985748E0,1.327547152E1
2.966427292E0,-1.711690521E0,8.526568909E0,7.614515533E0,1.155911366E1
2.976386292E0,-1.533710632E0,6.774013367E0,6.983876953E0,9.849571701E0
2.986346292E0,-1.464704132E0,5.048551483E0,6.052813110E0,8.016843320E0
2.996305292E0,-1.422042847E0,3.483106842E0,5.105133820E0,6.341658336E0
3.006264292E0,-1.475781097E0,2.004331970E0,4.141587524E0,4.831979275E0
3.016223292E0,-1.634002075E0,6.354286194E-1,3.129093018E0,3.586775073E0
3.026182292E0,-1.728156281E0,-4.572990417E-1,2.196681976E0,2.832147286E0
3.036141292E0,-1.733994141E0,-1.209185486E0,1.369053040E0,2.518565354E0
3.046100292E0,-1.682351532E0,-1.700463867E0,5.399272156E-1,2.452224590E0
3.056060292E0,-1.568737793E0,-1.927541656E0,-1.450483704E-1,2.489456593E0
3.066019292E0,-1.393003235E0,-2.003433838E0,-7.547305298E-1,2.554177623E0
3.075978292E0,-1.181493073E0,-2.020348663E0,-1.181642761E0,2.621834132E0
3.085937292E0,-1.038690033E0,-2.083367615E0,-1.766476593E0,2.922282867E0
3.095896292E0,-8.768765259E-1,-2.147434387E0,-2.248474274E0,3.230483470E0
3.105855292E0,-6.716532898E-1,-2.255359955E0,-2.461930389E0,3.405711073E0
3.115814292E0,-5.192701721E-1,-2.399959259E0,-2.773881683E0,3.704573599E0
3.125774292E0,-4.260140991E-1,-2.478096771E0,-3.033142548E0,3.939848390E0
3.135733292E0,-3.321592712E-1,-2.552492065E0,-3.180585938E0,4.091658885E0
3.145692292E0,-2.237846375E-1,-2.590213623E0,-3.310066681E0,4.209017416E0
3.155651292E0,-1.365161133E-1,-2.627935181E0,-3.383264465E0,4.286158934E0
3.165610292E0,5.987548828E-3,-2.671943665E0,-3.332370300E0,4.271300811E0
3.175569292E0,6.601272583E-2,-2.803819427E0,-3.255579987E0,4.297041088E0
3.185528292E0,4.056564331E-2,-2.872376862E0,-3.536695404E0,4.556359159E0
3.195488292E0,1.669029236E-1,-2.813998260E0,-3.777544556E0,4.713415499E0
3.205447292E0,3.091072083E-1,-2.752326508E0,-3.896547089E0,4.780578175E0
3.215406292E0,3.881428528E-1,-2.698737946E0,-3.981420593E0,4.825510472E0
3.225365292E0,4.562512207E-1,-2.713257751E0,-3.962709503E0,4.824209719E0
3.235324292E0,5.147795105E-1,-2.736010437E0,-3.847149811E0,4.748822246E0
3.245283292E0,5.011578369E-1,-2.810705109E0,-3.726051636E0,4.694111543E0
3.255242292E0,4.893324280E-1,-2.939437408E0,-3.598067780E0,4.671812309E0
3.265202292E0,4.851411438E-1,-3.157683563E0,-3.360511780E0,4.636740972E0
3.275161292E0,4.999603271E-1,-3.433260498E0,-3.036735077E0,4.610748085E0
3.285120292E0,5.104385376E-1,-3.783981171E0,-2.819536743E0,4.746456409E0
3.295079292E0,5.899232483E-1,-4.203558655E0,-2.603685608E0,4.979668016E0
3.305038292E0,7.069798279E-1,-4.784201202E0,-2.070644073E0,5.260795425E0
3.314997292E0,5.881269836E-1,-5.695955200E0,-1.682501221E0,5.968300374E0
3.324956292E0,5.559439087E-1,-6.725514221E0,-1.278940430E0,6.868573636E0
3.334916292E0,5.751040649E-1,-7.502398682E0,-3.306623840E-1,7.531671015E0
3.344875292E0,-3.650907898E-1,-7.376660156E0,7.128176880E-1,7.420007776E0
3.354834292E0,-2.010918274E0,-5.919440460E0,2.481090546E0,6.726022447E0
3.364793292E0,-3.383563843E0,-2.785108337E0,5.214107208E0,6.811185411E0
3.374752292E0,-3.577410736E0,2.161804504E0,9.163344727E0,1.007165095E1
3.384711292E0,-2.149979095E0,8.845106506E0,1.571102875E1,1.815749827E1
3.394670292E0,-9.092092896E-1,1.679717010E1,2.237636810E1,2.799416787E1
3.404630292E0,-4.047583008E-1,2.594494720E1,2.854788437E1,3.857830759E1
3.414589292E0,2.561174011E-1,3.282987991E1,3.566468491E1,4.847511073E1
3.424548292E0,-4.917274475E-1,3.641088318E1,3.983321640E1,5.396924438E1
3.434507292E0,-1.139729919E0,3.969235931E1,4.028108505E1,5.656278092E1
3.444466292E0,-2.105371857E0,4.093926636E1,3.624128586E1,5.471642277E1
3.454425292E0,-1.346899109E0,4.021387482E1,3.025418610E1,5.034168890E1
3.464385292E0,6.352789307E-1,3.839859970E1,2.524006302E1,4.595559617E1
3.474344292E0,2.100132751E0,3.564148315E1,2.096959351E1,4.140591420E1
3.484303292E0,2.747985535E0,3.244308426E1,1.795022232E1,3.717950540E1
3.494262292E0,2.519560547E0,2.895294205E1,1.562181427E1,3.299488020E1
3.504221292E0,2.104623413E0,2.549049225E1,1.423734329E1,2.927279588E1
3.514180292E0,1.474733276E0,2.243339951E1,1.395353348E1,2.646003303E1
3.524139292E0,3.849993896E-1,1.951342163E1,1.373783203E1,2.386733913E1
3.534099292E0,-3.653901672E-1,1.693024338E1,1.322439972E1,2.148607453E1
3.544058292E0,-5.852828979E-1,1.493863495E1,1.265543289E1,1.958737736E1
3.554017292E0,-8.864566040E-1,1.288236099E1,1.166688858E1,1.740279630E1
3.563976292E0,-9.831555176E-1,1.117246674E1,1.093116852E1,1.566145117E1
3.573935292E0,-1.201102295E0,9.420809326E0,1.004216721E1,1.382170095E1
3.583894292E0,-1.370998993E0,7.682623901E0,9.280550995E0,1.212563297E1
3.593853292E0,-1.420695648E0,6.061944122E0,8.578211517E0,1.059958752E1
3.603813292E0,-1.182840271E0,4.686604156E0,8.039032745E0,9.380267433E0
3.613772292E0,-1.102756805E0,3.259022827E0,7.168892212E0,7.951749361E0
3.623730542E0,-1.127605133E0,1.966909790E0,6.121071167E0,6.527460432E0
3.633689542E0,-1.032552795E0,9.092092896E-1,5.373376007E0,5.546710423E0
3.643648542E0,-1.103056183E0,-1.562750244E-1,4.567451935E0,4.701358527E0
3.653607542E0,-1.381776581E0,-1.066232758E0,3.162772980E0,3.612380342E0
3.663566542E0,-1.419198761E0,-1.595382385E0,2.176923065E0,3.049321910E0
3.673526542E0,-1.337019653E0,-1.936373291E0,1.252295837E0,2.665597108E0
3.683485542E0,-1.172212372E0,-2.115251312E0,5.980064392E-1,2.491180776E0
3.693444542E0,-1.019080811E0,-2.268233185E0,1.210981750E-1,2.489592787E0
3.703403542E0,-8.804690552E-1,-2.356998596E0,-2.742297363E-1,2.530982040E0
3.713362542E0,-6.747967529E-1,-2.390828247E0,-8.208929443E-1,2.616347758E0
3.723321542E0,-4.293072510E-1,-2.512824554E0,-1.355431366E0,2.887176154E0
3.733280542E0,-3.225791931E-1,-2.641856232E0,-1.772015076E0,3.197420697E0
3.743240542E0,-2.390528870E-1,-2.796035614E0,-2.176773376E0,3.551521332E0
3.753199542E0,-1.583706665E-1,-2.984344025E0,-2.642754364E0,3.989428675E0
3.763158542E0,-8.756790161E-2,-3.147953796E0,-3.024310913E0,4.366204042E0
3.773117542E0,1.294807434E-1,-3.366050262E0,-3.366948395E0,4.762709431E0
3.783076542E0,2.528242493E-1,-3.662733307E0,-3.730991364E0,5.234484878E0
3.793035542E0,2.712359619E-1,-3.864214325E0,-4.108356628E0,5.646619828E0
3.802994542E0,2.986289978E-1,-3.992946625E0,-4.386627960E0,5.939301886E0
3.812954542E0,3.803590393E-1,-4.270319824E0,-4.597838745E0,6.286527303E0
3.822913542E0,4.544549561E-1,-4.690046997E0,-5.168003082E0,6.993663275E0
3.832872542E0,5.508544922E-1,-5.234165497E0,-5.639971619E0,7.714221217E0
3.842831542E0,5.113366699E-1,-5.812562714E0,-5.950725403E0,8.334175623E0
3.852790542E0,4.956193542E-1,-6.362519073E0,-6.322701874E0,8.983531961E0
3.862749542E0,5.197192383E-1,-7.130571899E0,-6.359525299E0,9.568632386E0
3.872708542E0,7.370672607E-1,-8.243657227E0,-6.074967041E0,1.026676079E1
3.882668542E0,1.025367737E0,-9.553583221E0,-5.618416443E0,1.113054063E1
3.892627542E0,9.383985901E-1,-1.079854431E1,-6.301595764E0,1.253791292E1
3.902586542E0,1.569037170E0,-1.140583145E1,-7.163204041E0,1.355973307E1
3.912545542E0,2.188299408E0,-1.147753235E1,-5.156626740E0,1.277157792E1
3.922504542E0,7.014413452E-1,-1.049617310E1,-2.598596191E-1,1.052279415E1
3.932463542E0,-1.242865448E0,-7.104376373E0,3.462300110E0,8.000275009E0
3.942422542E0,-1.287921753E0,-2.437531128E0,5.764812012E0,6.390098432E0
3.952382542E0,-4.992118835E-1,1.638642426E0,9.115294647E0,9.274856226E0
3.962341542E0,7.755372620E-1,5.235363007E0,1.378977402E1,1.477052305E1
3.972300542E0,1.919159088E0,9.254505157E0,1.811098801E1,2.042882581E1
3.982259542E0,1.054706726E0,1.309566742E1,2.194242050E1,2.557496293E1
3.992218542E0,-1.448388062E0,1.604318802E1,2.524485306E1,2.994635730E1
4.002177542E0,-4.537065125E0,1.801189407E1,2.809492630E1,3.367993723E1
4.012136542E0,-6.282136230E0,1.943438599E1,2.925636108E1,3.568046045E1
4.022095542E0,-5.297334137E0,2.052067703E1,2.773971497E1,3.490919250E1
4.032055542E0,-3.103196869E0,2.079819992E1,2.496104324E1,3.263814686E1
4.042014542E0,-1.203197937E0,2.060704742E1,2.185694824E1,3.006367036E1
4.051973542E0,-3.254232788E-1,2.021680893E1,1.924158691E1,2.791171673E1
4.061932542E0,-2.546205139E-1,1.942330902E1,1.707125015E1,2.586034313E1
4.071891542E0,4.849914551E-2,1.859478195E1,1.516676056E1,2.399580992E1
4.081850542E0,5.354365540E-1,1.828702194E1,1.329699875E1,2.261663192E1
4.091810542E0,1.550924835E0,1.992716125E1,1.156749527E1,2.309337720E1
4.101769542E0,2.896925812E0,1.619512207E1,1.120180573E1,1.990363307E1
4.111728542E0,1.809586945E0,1.575773163E1,1.109852051E1,1.935866391E1
4.121687542E0,-2.275268555E-2,1.541329788E1,7.896978149E0,1.731856037E1
4.131646542E0,6.691085815E-2,1.388692200E1,6.961872711E0,1.553443759E1
4.141605542E0,4.719685364E-1,1.194261520E1,6.809489594E0,1.375565196E1
4.151564542E0,1.851649475E-1,9.483229523E0,7.041507111E0,1.181307541E1
4.161524542E0,-6.239025879E-1,8.471633148E0,6.075865173E0,1.044384796E1
4.171483542E0,-2.039508820E0,6.821913757E0,6.365961914E0,9.551103320E0
4.181442542E0,-3.227288818E0,4.825215912E0,6.839577026E0,8.970948423E0
4.191401542E0,-4.262835388E0,3.089874573E0,6.719975739E0,8.536812306E0
4.201360542E0,-4.775369568E0,1.859433289E0,6.664890289E0,8.407283107E0
4.211319542E0,-4.112547913E0,1.971250763E0,7.590415649E0,8.855127872E0
4.221278542E0,-3.258573761E0,3.103645935E0,8.672515411E0,9.770539627E0
4.231237542E0,-1.850901031E0,4.315974884E0,9.416767731E0,1.052278425E1
4.241197542E0,5.692662048E-1,5.308111725E0,9.914482727E0,1.126042103E1
4.251156542E0,3.042872314E0,5.989644470E0,9.496851196E0,1.163293151E1
4.261115542E0,4.151317291E0,5.437293091E0,7.990683289E0,1.051896434E1
4.271074542E0,3.869902496E0,3.822900238E0,5.303022308E0,7.596891283E0
4.281033542E0,2.209555206E0,3.681893463E0,6.113586731E0,7.470904657E0
4.290992542E0,5.837860107E-3,4.167184296E0,9.613907776E0,1.047820031E1
4.300952542E0,1.402583313E-1,5.419629822E0,9.157955933E0,1.064237834E1
4.310911542E0,1.465153198E0,5.939648438E0,9.857151947E0,1.160127329E1
4.320870542E0,2.477947083E0,5.866001587E0,1.023152344E1,1.205131811E1
4.330829542E0,2.779569855E0,5.488636322E0,1.007914032E1,1.180848029E1
4.340788542E0,3.164269867E0,4.776267700E0,9.403295746E0,1.101123553E1
4.350747542E0,3.204236755E0,4.292773132E0,8.325387268E0,9.899853914E0
4.360706542E0,3.019670563E0,4.266727295E0,7.532635803E0,9.168640808E0
4.370665542E0,2.635120239E0,4.351301422E0,6.986122284E0,8.641966634E0
4.380625542E0,1.986219635E0,4.691394196E0,6.735393677E0,8.445103665E0
4.390584542E0,1.298699341E0,5.212460632E0,6.777306519E0,8.648019974E0
4.400543542E0,7.255412292E-1,5.677992554E0,6.944209442E0,8.999336325E0
4.410502542E0,7.171586609E-1,5.771098938E0,6.937623138E0,9.052652336E0
4.420461542E0,5.950126648E-1,5.755830688E0,6.965016174E0,9.055113323E0
4.430420542E0,6.509962463E-1,5.707181854E0,7.279512177E0,9.272918546E0
4.440379542E0,8.572673035E-1,5.609435120E0,7.609126740E0,9.492074553E0
4.450339542E0,1.022373962E0,5.410199432E0,7.930508423E0,9.654453390E0
4.460298542E0,1.261426849E0,5.251978455E0,8.061935120E0,9.704085390E0
4.470257542E0,1.366208954E0,5.184319153E0,7.883805542E0,9.534048553E0
4.480216542E0,1.179397430E0,5.204377441E0,7.726183319E0,9.389911157E0
4.490175542E0,9.951306152E-1,5.283113708E0,7.957452393E0,9.603261112E0
4.500134542E0,1.033750305E0,5.300477600E0,8.376131744E0,9.966106837E0
4.510093542E0,1.054557037E0,5.189408569E0,8.626560974E0,1.012223326E1
4.520053542E0,1.042132874E0,5.145699463E0,8.804540863E0,1.025105866E1
4.530012542E0,1.065484314E0,5.141657867E0,8.673263855E0,1.013890568E1
4.539971542E0,8.723858643E-1,5.117408295E0,8.526568909E0,9.982549880E0
4.549930542E0,6.457571411E-1,5.274880829E0,8.337212677E0,9.886884508E0
4.559889542E0,4.947212219E-1,5.472919006E0,8.070766754E0,9.763957576E0
4.569848542E0,3.363505554E-1,5.642216949E0,7.862100677E0,9.682993900E0
4.579808542E0,4.239184570E-1,5.736371155E0,7.681725769E0,9.596591670E0
4.589767542E0,5.107379150E-1,5.705834656E0,7.492519226E0,9.431608913E0
4.599726542E0,4.787045288E-1,5.656287689E0,7.511380005E0,9.415071855E0
4.609685542E0,5.604345703E-1,5.562732239E0,7.637567596E0,9.465226656E0
4.619644750E0,6.869215393E-1,5.454207916E0,7.719597015E0,9.476941663E0
4.629603750E0,6.695576477E-1,5.339995422E0,7.713759155E0,9.405633358E0
4.639562750E0,6.433621216E-1,5.364244995E0,7.707621918E0,9.412570043E0
4.649522750E0,6.183641052E-1,5.430557098E0,7.717052307E0,9.456543812E0
4.659481750E0,5.378315735E-1,5.512586517E0,7.889493713E0,9.639604969E0
4.669440750E0,5.616320801E-1,5.550308075E0,8.056546326E0,9.799453506E0
4.679399750E0,6.930587769E-1,5.524711304E0,8.077203369E0,9.810401609E0
4.689358750E0,7.936495972E-1,5.415438538E0,7.986791382E0,9.682235838E0
4.699317750E0,9.280700684E-1,5.335953827E0,7.917335815E0,9.592597339E0
4.709276750E0,9.431886292E-1,5.303621063E0,7.974067841E0,9.623084698E0
4.719236750E0,8.705895996E-1,5.264552307E0,8.081694031E0,9.684379983E0
4.729195750E0,8.509803772E-1,5.268593903E0,8.084089050E0,9.686833594E0
4.739154750E0,9.478289795E-1,5.302573242E0,7.975265350E0,9.623955537E0
4.749113750E0,9.327104187E-1,5.329966278E0,7.939040680E0,9.607645714E0
4.759072750E0,9.321116638E-1,5.391338654E0,7.928861847E0,9.633390619E0
4.769031750E0,1.028960266E0,5.450316010E0,7.715854797E0,9.502584863E0
4.778990750E0,9.671388245E-1,5.492528229E0,7.552394714E0,9.388391224E0
4.788950750E0,9.948312378E-1,5.547014923E0,7.598199463E0,9.460005223E0
4.798909750E0,1.064885559E0,5.521268463E0,7.696694641E0,9.531919801E0
4.808868750E0,1.027912445E0,5.374124451E0,7.840545502E0,9.560960797E0
4.818827750E0,1.022224274E0,5.319637756E0,8.083789673E0,9.730937457E0
4.828786750E0,1.007105713E0,5.368136902E0,8.155191193E0,9.815207542E0
4.838745750E0,9.859996033E-1,5.398074646E0,8.020920410E0,9.718362482E0
4.848704750E0,1.017733612E0,5.436694336E0,7.849227448E0,9.602280902E0
4.858664750E0,9.732760620E-1,5.589227142E0,7.109316101E0,9.095553956E0
4.868623750E0,6.574328613E-1,5.622907104E0,7.380552063E0,9.301712263E0
4.878582750E0,5.466632080E-1,5.822741547E0,8.155191193E0,1.003545232E1
4.888541750E0,6.679110718E-1,5.914650421E0,8.462502136E0,1.034616534E1
4.898500750E0,5.788462830E-1,5.677393799E0,8.347840576E0,1.011208711E1