"Time (s)","Acceleration x (m/s^2)","Acceleration y (m/s^2)","Acceleration z (m/s^2)","Absolute acceleration (m/s^2)"
-3.451833327E-3,-1.973645782E0,6.829248505E0,6.367608490E0,9.543602606E0
6.507166661E-3,-1.907183990E0,6.811136169E0,6.425088959E0,9.555662971E0
1.646616671E-2,-1.970801697E0,6.799610138E0,6.396498413E0,9.541171275E0
2.642516670E-2,-1.982776794E0,6.754404144E0,6.441255341E0,9.541653396E0
3.638416668E-2,-1.970202942E0,6.690786438E0,6.499334564E0,9.533607532E0
4.634316667E-2,-1.922751617E0,6.677164764E0,6.538553009E0,9.541183287E0
5.630216666E-2,-1.941911774E0,6.740183716E0,6.535259857E0,9.587007837E0
6.626116671E-2,-2.028431854E0,6.777605896E0,6.461014252E0,9.580980254E0
7.622116670E-2,-2.140698395E0,6.813980255E0,6.488556976E0,9.649574507E0
8.618016669E-2,-2.202519836E0,6.856791229E0,6.605463867E0,9.772350408E0
9.613916668E-2,-2.126777344E0,6.863527222E0,6.675218811E0,9.807636513E0
1.060981667E-1,-1.983974304E0,6.817123718E0,6.752607880E0,9.798318376E0
1.160564167E-1,-1.750609589E0,6.718329163E0,6.737489319E0,9.674416933E0
1.260154167E-1,-1.585951996E0,6.537654877E0,6.642886047E0,9.454317006E0
1.359744167E-1,-1.487756195E0,6.528823242E0,6.451883240E0,9.298696079E0
1.459344167E-1,-1.584155731E0,6.674320679E0,6.257138214E0,9.284820113E0
1.558934167E-1,-1.730401611E0,6.681655426E0,6.227948914E0,9.296566928E0
1.658524167E-1,-2.011067963E0,6.714287567E0,6.219566345E0,9.370648719E0
1.758114167E-1,-2.379601593E0,6.741530914E0,6.484066315E0,9.651624671E0
1.857704167E-1,-2.250869293E0,6.761738892E0,6.699917450E0,9.781432372E0
1.957294167E-1,-1.762884064E0,6.852749634E0,6.711144104E0,9.752301931E0
2.056884167E-1,-1.566193085E0,6.731651459E0,6.629264374E0,9.576807311E0
2.156474167E-1,-1.572030945E0,6.615792389E0,6.440806274E0,9.366107820E0
2.256074167E-1,-1.692680054E0,6.619684296E0,6.188131714E0,9.218370791E0
2.355664167E-1,-1.968855743E0,6.557264099E0,6.281986542E0,9.291795322E0
2.455254167E-1,-2.236050110E0,6.654262390E0,6.466403046E0,9.544291299E0
2.554844167E-1,-2.373763733E0,6.867868195E0,6.423741760E0,9.698805390E0
2.654434167E-1,-2.389181671E0,7.047494659E0,6.285429382E0,9.740738809E0
2.754024167E-1,-2.237397308E0,7.132667542E0,6.141877899E0,9.674893131E0
2.853614167E-1,-2.051334229E0,7.080276489E0,6.087840271E0,9.560339243E0
2.953214167E-1,-1.976489868E0,6.953789520E0,6.252797241E0,9.558199319E0
3.052804167E-1,-2.230361938E0,6.798412628E0,6.648574219E0,9.767111537E0
3.152394167E-1,-3.041076050E0,6.599476318E0,7.711813202E0,1.059590931E1
3.251984167E-1,-2.577789459E0,6.519841919E0,7.942782898E0,1.059439179E1
3.351574167E-1,-2.400108948E0,6.620133362E0,7.862549744E0,1.055492194E1
3.451164167E-1,-2.680026855E0,6.827751617E0,7.909402313E0,1.078700056E1
3.550754167E-1,-2.656974792E0,6.996450806E0,7.709717560E0,1.074474680E1
3.650354167E-1,-2.486030273E0,7.141050110E0,7.388934631E0,1.057219458E1
3.749944167E-1,-2.016905823E0,7.318281555E0,7.235503693E0,1.048702378E1
3.849534167E-1,-1.904639282E0,7.687863007E0,7.056326294E0,1.060766841E1
3.949124167E-1,-1.923050995E0,7.698640594E0,6.888674927E0,1.050814134E1
4.048714167E-1,-2.340383148E0,7.566764832E0,6.645730133E0,1.033919979E1
4.148304167E-1,-2.415077820E0,7.456743622E0,6.216273193E0,1.000388318E1
4.247894167E-1,-2.065854034E0,7.188202057E0,5.891748047E0,9.521065946E0
4.347484167E-1,-1.735491028E0,7.018754425E0,5.800138550E0,9.269112686E0
4.447084167E-1,-1.679208069E0,7.087311859E0,5.676196289E0,9.234117903E0
4.546674167E-1,-1.710942078E0,7.181466064E0,5.527555389E0,9.222507588E0
4.646264167E-1,-1.726509705E0,7.372468872E0,5.428012390E0,9.316514989E0
4.745854167E-1,-1.665287018E0,7.635022888E0,5.385949860E0,9.490796133E0
4.845444167E-1,-1.646276550E0,7.871381378E0,5.149142303E0,9.548954798E0
4.945034167E-1,-1.918859711E0,7.946824493E0,4.795128479E0,9.477726481E0
5.044624167E-1,-1.922452240E0,7.946375427E0,4.764142914E0,9.462439577E0
5.144224167E-1,-1.836231537E0,7.883506165E0,4.757706299E0,9.389205767E0
5.243814167E-1,-2.018103333E0,7.781268768E0,4.911286926E0,9.420277277E0
5.343404167E-1,-2.068249054E0,7.730374603E0,5.354066162E0,9.628207005E0
5.442994167E-1,-2.148332520E0,7.741601257E0,5.566175079E0,9.773946371E0
5.542584167E-1,-2.359243927E0,7.741301880E0,5.752387848E0,9.928935122E0
5.642174167E-1,-2.686014404E0,7.616760864E0,6.000871124E0,1.006181761E1
5.741764167E-1,-3.217858429E0,7.426656189E0,6.162834320E0,1.017302128E1
5.841364167E-1,-3.482358398E0,7.275919647E0,6.444847870E0,1.032481917E1
5.940954167E-1,-3.381917267E0,7.225624237E0,6.984475708E0,1.060329717E1
6.040544167E-1,-3.124003601E0,7.181316376E0,7.148833923E0,1.060360928E1
6.140134167E-1,-2.794688416E0,6.969057770E0,7.039261780E0,1.029219393E1
6.239724167E-1,-2.405198364E0,6.726861420E0,6.869365082E0,9.910793125E0
6.339314167E-1,-1.980980530E0,6.441704407E0,6.641838226E0,9.462233063E0
6.438904167E-1,-1.661245422E0,6.297105103E0,6.446793823E0,9.163755760E0
6.538494167E-1,-1.447938995E0,6.484964447E0,6.372099152E0,9.206244555E0
6.638094167E-1,-1.514550476E0,6.764582977E0,6.338568878E0,9.393130544E0
6.737684167E-1,-1.774260406E0,7.184459839E0,6.274502106E0,9.702259522E0
6.837274167E-1,-2.331850891E0,7.631280670E0,6.393654327E0,1.022510581E1
6.936864167E-1,-3.663930817E0,7.674690399E0,6.461014252E0,1.068035425E1
7.036454167E-1,-3.677702179E0,7.871980133E0,6.579118652E0,1.089854884E1
7.136044167E-1,-3.004701691E0,8.522227936E0,6.560856628E0,1.116697994E1
7.235634167E-1,-3.249442749E0,8.966054993E0,6.383625183E0,1.147604857E1
7.335234167E-1,-3.743415527E0,9.510772247E0,6.324198761E0,1.201929443E1
7.434824167E-1,-3.586841125E0,1.025577301E1,7.009922791E0,1.293001651E1
7.534414167E-1,-3.096011810E0,1.086111420E1,7.411986694E0,1.350876151E1
7.634004167E-1,-1.239721985E0,1.211400879E1,8.808283081E0,1.502903757E1
7.733594167E-1,1.135388947E0,1.392973297E1,1.003004242E1,1.720256724E1
7.833184167E-1,1.427431641E0,1.482861374E1,1.098520615E1,1.850945976E1
7.932774167E-1,9.454339600E-1,1.528935562E1,1.269270538E1,1.989379327E1
8.032374167E-1,-6.092330933E-2,1.579605194E1,1.385833145E1,2.101362223E1
8.131964167E-1,-1.248852997E0,1.585772369E1,1.384051849E1,2.108523148E1
8.231554167E-1,-1.725312195E0,1.550939804E1,1.297367111E1,2.029370030E1
8.331144167E-1,-1.794468384E0,1.522424103E1,1.206850342E1,1.951016162E1
8.430734167E-1,-2.020198975E0,1.499057693E1,1.180310532E1,1.918624236E1
8.530324167E-1,-2.167941742E0,1.480616043E1,1.226504471E1,1.934822162E1
8.629914167E-1,-2.158661041E0,1.478834747E1,1.266261795E1,1.958818347E1
8.729514167E-1,-1.708696747E0,1.468281693E1,1.206012085E1,1.907750697E1
8.829104167E-1,-8.439450073E-1,1.419303543E1,1.093116852E1,1.793446244E1
8.928694167E-1,-5.589376831E-1,1.339025482E1,1.004800507E1,1.675033556E1
9.028284167E-1,-7.442523193E-1,1.227432541E1,9.309291229E0,1.542322531E1
9.127874167E-1,-1.168320465E0,1.090617050E1,8.969647522E0,1.416912504E1
9.227464167E-1,-1.936972046E0,9.095386047E0,8.640032959E0,1.269362350E1
9.327054167E-1,-2.509681091E0,7.729476471E0,7.141798553E0,1.081889977E1
9.426654167E-1,-2.967429199E0,6.509064331E0,6.130202179E0,9.420877521E0
9.526244167E-1,-3.322191467E0,5.321434021E0,5.474415894E0,8.326094256E0
9.625834167E-1,-3.508703613E0,4.319567413E0,4.772525482E0,7.331211575E0
9.725424167E-1,-3.485950928E0,3.556154938E0,3.813170471E0,6.272030043E0
9.825014167E-1,-3.213068390E0,2.996917877E0,2.905308380E0,5.267460681E0
9.924604167E-1,-2.956950989E0,2.266586609E0,2.195933533E0,4.324707861E0
1.002419417E0,-2.998265076E0,1.504820709E0,1.540596313E0,3.691546537E0
1.012378417E0,-3.163970490E0,8.607101440E-1,7.444020081E-1,3.362389858E0
1.022338417E0,-3.410657501E0,1.381626892E-1,-1.422042847E-1,3.416415604E0
1.032297417E0,-3.441942444E0,-9.889933777E-1,-8.934919739E-1,3.690989514E0
1.042256417E0,-3.162772980E0,-1.515149231E0,-1.678010559E0,3.887740931E0
1.052215417E0,-2.923271027E0,-1.420845337E0,-2.585124207E0,4.152972686E0
1.062174417E0,-2.661315765E0,-1.315464478E0,-3.174598389E0,4.346391989E0
1.072133417E0,-2.567311249E0,-1.349443817E0,-3.742218018E0,4.734583546E0
1.082092417E0,-2.666554871E0,-1.451830902E0,-4.159400482E0,5.149654378E0
1.092052417E0,-2.690505066E0,-1.578766937E0,-3.965852966E0,5.045722178E0
1.102011417E0,-2.474803619E0,-1.695673828E0,-3.128194885E0,4.334231873E0
1.111970417E0,-2.334694977E0,-1.730102234E0,-2.656825104E0,3.937356220E0
1.121929458E0,-2.071242828E0,-1.669328613E0,-2.681673431E0,3.777310851E0
1.131888458E0,-1.679357758E0,-1.538650360E0,-2.998863831E0,3.765749817E0
1.141847458E0,-1.200802917E0,-1.687590637E0,-3.093916168E0,3.723198499E0
1.151806458E0,-1.013392639E0,-1.954036560E0,-2.657573547E0,3.450785516E0
1.161766458E0,-1.070124664E0,-1.980531464E0,-2.103874969E0,3.081227282E0
1.171725458E0,-1.215472412E0,-1.679357758E0,-1.392703857E0,2.497446635E0
1.181684458E0,-1.600771179E0,-1.154549103E0,-7.203021240E-1,2.101020502E0
1.191643458E0,-1.766775970E0,-5.881269836E-1,-1.731898499E-1,1.870129782E0
1.201602458E0,-1.647174683E0,1.151106262E-1,5.342390442E-1,1.735467155E0
1.211561458E0,-1.094224548E0,8.336164856E-1,1.335223389E0,1.917045984E0
1.221520458E0,-8.409512329E-1,1.410965881E0,1.861977997E0,2.482938935E0
1.231480458E0,-9.556127930E-1,1.860032043E0,2.177671509E0,3.019133686E0
1.241439458E0,-1.343605957E0,2.294279022E0,2.758463745E0,3.831202870E0
1.251398458E0,-1.834884338E0,3.026107178E0,2.793640594E0,4.508719658E0
1.261357458E0,-1.791324921E0,4.286635895E0,2.628983002E0,5.338131123E0
1.271316458E0,-1.697170715E0,5.919889526E0,3.015179901E0,6.856879048E0
1.281275458E0,-1.849254456E0,7.665559387E0,3.727847900E0,8.722235535E0
1.291234458E0,-1.950593719E0,9.403744812E0,4.674030304E0,1.068090781E1
1.301193458E0,-2.134112091E0,1.122605530E1,5.461093597E0,1.266500277E1
1.311153458E0,-2.176473999E0,1.323742264E1,5.899681549E0,1.465512332E1
1.321112458E0,-1.800006866E0,1.533695663E1,5.990692291E0,1.656353397E1
1.331071458E0,-1.344204712E0,1.742421616E1,6.402935028E0,1.861203299E1
1.341030458E0,-8.026309204E-1,1.916509598E1,6.775210876E0,2.034326922E1
1.350989458E0,-1.037342834E-1,2.064551743E1,7.175777893E0,2.185726284E1
1.360948458E0,2.206411743E-1,2.212578918E1,7.664062500E0,2.341659846E1
1.370907458E0,-9.699829102E-2,2.362477203E1,8.257578278E0,2.502652316E1
1.380867458E0,-5.198689270E-1,2.500714737E1,9.376501465E0,2.671229049E1
1.390826458E0,-5.896238708E-1,2.636093216E1,1.064421524E1,2.843493835E1
1.400785458E0,-5.423222351E-1,2.760514481E1,1.123877884E1,2.981020434E1
1.410744458E0,-5.893244934E-1,2.847648285E1,1.151884644E1,3.072362612E1
1.420703458E0,-7.734416199E-1,2.859428787E1,1.192225754E1,3.098986505E1
1.430662458E0,-1.013542328E0,2.795421890E1,1.194381271E1,3.041579005E1
1.440622458E0,-1.125659180E0,2.684682175E1,1.185115540E1,2.936781965E1
1.450581458E0,-7.905061340E-1,2.574885498E1,1.196985855E1,2.840608995E1
1.460540458E0,-4.303550720E-1,2.464475098E1,1.167586990E1,2.727407000E1
1.470499458E0,-3.240760803E-1,2.338137817E1,1.131407227E1,2.597695328E1
1.480458458E0,-2.276765442E-1,2.186592957E1,1.116138977E1,2.455091310E1
1.490417458E0,-4.176315308E-1,2.016950729E1,1.107067841E1,2.301180916E1
1.500376458E0,-9.842033386E-1,1.831396591E1,1.085063599E1,2.130977018E1
1.510336458E0,-8.247848511E-1,1.661395111E1,9.970915375E0,1.939388550E1
1.520295458E0,-1.208886108E0,1.559187653E1,9.653275909E0,1.837807811E1
1.530254458E0,-3.315754852E0,1.321511902E1,1.049198181E1,1.719637413E1
1.540213458E0,-2.967578888E0,1.131706604E1,1.072325089E1,1.587043219E1
1.550172458E0,-3.201692047E0,9.864786072E0,9.422904968E0,1.401270760E1
1.560131458E0,-3.162024536E0,8.602161713E0,7.729177094E0,1.198898510E1
1.570090458E0,-2.871628418E0,7.585924988E0,6.560856628E0,1.043251395E1
1.580049458E0,-2.722688141E0,6.548881531E0,5.515729980E0,8.984662333E0
1.590009458E0,-2.271825714E0,5.687273254E0,4.458628235E0,7.575330678E0
1.599968458E0,-1.786085815E0,4.965174866E0,3.429218903E0,6.293060167E0
1.609927458E0,-1.409319305E0,4.318669281E0,2.732866974E0,5.301475942E0
1.619886458E0,-1.218466187E0,3.585194550E0,2.373314667E0,4.468881551E0
1.629845458E0,-1.296454010E0,2.839744720E0,2.147434387E0,3.788986345E0
1.639804458E0,-1.962718506E0,1.963017883E0,1.578168182E0,3.193167386E0
1.649763458E0,-3.026855621E0,7.764353943E-1,2.974314880E-1,3.138976324E0
1.659723458E0,-3.376079407E0,-1.990859985E-1,-6.762936401E-1,3.448901344E0
1.669682458E0,-3.268453217E0,-1.082399139E0,-9.172924805E-1,3.563116588E0
1.679641458E0,-3.212319946E0,-1.921105042E0,-1.185834045E0,3.926301873E0
1.689600458E0,-2.743494873E0,-2.393372955E0,-1.745819550E0,4.037683014E0
1.699559458E0,-1.977238312E0,-2.666405182E0,-2.187700653E0,3.975578207E0
1.709518458E0,-1.533111877E0,-2.972219238E0,-2.477348328E0,4.161943532E0
1.719477458E0,-1.388961639E0,-3.236120453E0,-2.567011871E0,4.357893983E0
1.729437458E0,-9.062155151E-1,-3.308420105E0,-1.993704071E0,3.967584413E0
1.739396458E0,-5.092410278E-1,-3.156635742E0,-1.689835968E0,3.616520597E0
1.749355458E0,-6.559359741E-1,-3.117117920E0,-1.965263214E0,3.742851270E0
1.759314458E0,-1.078956299E0,-3.439098358E0,-2.027084656E0,4.135289157E0
1.769273458E0,-1.600022736E0,-3.978875885E0,-1.753303986E0,4.633098416E0
1.779232458E0,-2.143093414E0,-4.582720184E0,-1.132245483E0,5.184221591E0
1.789191458E0,-2.689008179E0,-5.264701996E0,-2.655477905E-1,5.917631935E0
1.799151458E0,-2.998714142E0,-5.947282562E0,8.834628296E-1,6.718851312E0
1.809110458E0,-3.440595245E0,-6.474635925E0,2.189496918E0,7.651960713E0
1.819069458E0,-4.037404175E0,-6.867568817E0,3.375031586E0,8.651876798E0
1.829028458E0,-4.602329407E0,-6.921756134E0,4.290078735E0,9.353978806E0
1.838987458E0,-4.913232880E0,-7.044500885E0,5.214556274E0,1.004770855E1
1.848946458E0,-4.850064240E0,-7.194039917E0,5.718558197E0,1.039130604E1
1.858905458E0,-4.375550995E0,-7.195686493E0,5.942193146E0,1.030693989E1
1.868865458E0,-3.751648407E0,-7.164401550E0,6.549031219E0,1.040640789E1
1.878824458E0,-3.289110260E0,-7.202123108E0,7.591762848E0,1.096921541E1
1.888783458E0,-2.823728027E0,-6.659351807E0,8.937015381E0,1.149741929E1
1.898742458E0,-2.359842682E0,-5.839207306E0,1.036788986E1,1.213088371E1
1.908701458E0,-1.602417755E0,-4.781207428E0,1.208317291E1,1.309315679E1
1.918660458E0,-1.109941864E0,-3.859424286E0,1.300226166E1,1.360830390E1
1.928619458E0,-6.881190491E-1,-3.146007843E0,1.441502380E1,1.477036846E1
1.938578458E0,-4.547543335E-1,-2.856809235E0,1.535896088E1,1.562900636E1
1.948538458E0,-2.658471680E-1,-2.317780151E0,1.666319870E1,1.682572348E1
1.958497458E0,-2.664459229E-1,-1.763482819E0,1.835063965E1,1.843710499E1
1.968456458E0,7.933502197E-2,-2.076182556E-1,2.021920395E1,2.022042551E1
1.978415458E0,9.018745422E-1,2.696492615E0,2.216635483E1,2.234796940E1
1.988374458E0,1.793420563E0,6.397695923E0,2.466421051E1,2.554349527E1
1.998333458E0,2.256856842E0,9.650731201E0,2.731100647E1,2.905376206E1
2.008292458E0,3.222049713E0,1.245485001E1,2.867661667E1,3.143013262E1
2.018252458E0,3.856430511E0,1.405607025E1,2.796589462E1,3.153627164E1
2.028211458E0,2.927462311E0,1.464270035E1,2.701701782E1,3.086904535E1
2.038170458E0,9.430389404E-1,1.504730896E1,2.691163696E1,3.084715600E1
2.048129458E0,-2.146536255E-1,1.572090820E1,2.748464539E1,3.166383999E1
2.058088458E0,1.496887207E-2,1.692335770E1,2.824027405E1,3.292283916E1
2.068047458E0,1.119072876E0,1.832040253E1,2.823219086E1,3.367411578E1
2.078006458E0,2.490970001E0,1.889011780E1,2.725322662E1,3.325326816E1
2.087966458E0,3.116818542E0,1.804138275E1,2.531370987E1,3.124083797E1
2.097925458E0,3.004701691E0,1.620425308E1,2.341625565E1,2.863436884E1
2.107884458E0,2.947819977E0,1.438478668E1,2.208387634E1,2.651997973E1
2.117843667E0,3.278482361E0,1.289298889E1,2.059372513E1,2.451691505E1
2.127802667E0,3.880979462E0,1.126452530E1,1.908591064E1,2.249941148E1
2.137761667E0,4.239483948E0,9.561367035E0,1.753588394E1,2.041813384E1
2.147720667E0,4.195475464E0,7.937543793E0,1.622970016E1,1.854750073E1
2.157680667E0,3.668870544E0,6.410718842E0,1.512873962E1,1.683557809E1
2.167639667E0,3.012036438E0,5.189857635E0,1.431697769E1,1.552362187E1
2.177598667E0,2.359842682E0,4.349056091E0,1.360939911E1,1.448098375E1
2.187557667E0,2.026336212E0,3.705394592E0,1.293849426E1,1.361031305E1
2.197516667E0,1.911524963E0,3.043620758E0,1.257490036E1,1.307844311E1
2.207475667E0,2.086660767E0,2.761457520E0,1.281500107E1,1.327418748E1
2.217434667E0,2.058668976E0,2.853665771E0,1.277024414E1,1.324615649E1
2.227394667E0,1.332379303E0,2.655477905E0,1.238329880E1,1.273471188E1
2.237353667E0,4.188290405E-1,2.145937500E0,1.246562759E1,1.265592102E1
2.247312667E0,-5.020559692E-1,1.526076508E0,1.259585678E1,1.269789659E1
2.257271667E0,-9.569599915E-1,1.013542328E0,1.217493210E1,1.225446907E1
2.267230667E0,-1.012494507E0,4.177812195E-1,1.135598511E1,1.140868459E1
2.277189667E0,-7.647596741E-1,-3.511697388E-1,1.060739182E1,1.064072078E1
2.287148667E0,-5.801934814E-1,-1.049766998E0,9.962981873E0,1.003492118E1
2.297108667E0,-9.190887451E-1,-1.688788147E0,9.192534027E0,9.391454167E0
2.307067667E0,-1.204994202E0,-2.249073029E0,8.655151520E0,9.023413342E0
2.317026667E0,-1.077309723E0,-2.703827362E0,8.423583069E0,8.912240479E0
2.326985667E0,-4.221221924E-1,-2.854414215E0,8.545729065E0,9.019720223E0
2.336944667E0,4.355941772E-2,-2.894231415E0,8.154293060E0,8.652801178E0
2.346903667E0,5.358856201E-2,-3.344495087E0,7.294181671E0,8.024562628E0
2.356862667E0,1.625619507E-1,-3.931873627E0,6.722520447E0,7.789630143E0
2.366822667E0,-1.872605896E-1,-4.492308197E0,6.213279419E0,7.669468078E0
2.376781667E0,-3.481759644E-1,-4.985083466E0,5.753735046E0,7.620875976E0
2.386740667E0,-7.315287781E-1,-5.366190948E0,5.547763367E0,7.752987684E0
2.396699667E0,-1.531614990E0,-5.685776367E0,5.499114532E0,8.056932296E0
2.406658667E0,-2.134710846E0,-5.808371429E0,5.719156952E0,8.426323356E0
2.416617667E0,-2.010319519E0,-5.663472748E0,6.217171326E0,8.646937459E0
2.426576667E0,-1.548230438E0,-5.356311493E0,6.532565460E0,8.588451653E0
2.436536667E0,-1.495390320E0,-5.055287476E0,6.397246857E0,8.289565189E0
2.446495667E0,-1.628164215E0,-4.973407745E0,6.221961365E0,8.130098802E0
2.456454667E0,-1.383423157E0,-4.977000275E0,6.283932495E0,8.134629615E0
2.466413667E0,-1.158740387E0,-4.931195526E0,6.102809143E0,7.931182008E0
2.476372667E0,-1.223555603E0,-5.047803040E0,5.614075470E0,7.648218565E0
2.486331667E0,-1.498833160E0,-5.487738190E0,5.318440247E0,7.787655484E0
2.496290667E0,-1.785187683E0,-6.008804626E0,5.289849701E0,8.202142279E0
2.506250667E0,-1.948947144E0,-6.402485962E0,5.540278931E0,8.688205343E0
2.516209667E0,-2.077230377E0,-6.606212311E0,5.581443329E0,8.894348586E0
2.526168667E0,-2.159259796E0,-6.428082733E0,5.517975311E0,8.742465443E0
2.536127667E0,-1.785337372E0,-6.145470428E0,5.917793884E0,8.716336431E0
2.546086667E0,-1.314416656E0,-6.017187195E0,6.236032104E0,8.764834813E0
2.556045667E0,-8.267308044E-1,-5.808521118E0,5.856122131E0,8.289545694E0
2.566004667E0,-1.737886047E-1,-5.763015747E0,5.291346588E0,7.825656630E0
2.575963667E0,4.194277954E-1,-5.992638245E0,5.385800171E0,8.068114791E0
2.585923667E0,1.219364319E0,-6.273005219E0,5.763764191E0,8.605720275E0
2.595882667E0,1.579066315E0,-6.562353516E0,5.991740112E0,9.025457532E0
2.605841667E0,1.724264374E0,-6.639143829E0,6.086642761E0,9.170525531E0
2.615800667E0,1.545236664E0,-6.818919983E0,6.419849854E0,9.492096619E0
2.625759667E0,1.419049072E0,-7.296277313E0,7.337591400E0,1.044459719E1
2.635718667E0,1.644330597E0,-7.505691833E0,8.373886414E0,1.136491120E1
2.645677667E0,2.090103607E0,-7.434140625E0,8.886570282E0,1.177310967E1
2.655637667E0,2.477647705E0,-7.236551514E0,9.169931030E0,1.194127510E1
2.665596667E0,2.661914520E0,-6.950196991E0,9.629625092E0,1.217048506E1
2.675555667E0,2.317331085E0,-6.330934753E0,1.084105591E1,1.276633273E1
2.685514667E0,2.580034790E0,-5.705235901E0,1.212149323E1,1.364319956E1
2.695473667E0,2.966980133E0,-5.318440247E0,1.298609528E1,1.434320216E1
2.705432667E0,3.460054779E0,-4.972509613E0,1.373259293E1,1.500939504E1
2.715391667E0,3.802392883E0,-4.736001434E0,1.444211746E1,1.566724794E1
2.725351667E0,3.811673584E0,-4.276906128E0,1.510164597E1,1.615179533E1
2.735310667E0,3.377127228E0,-3.441792755E0,1.584754486E1,1.656489070E1
2.745269667E0,2.938688965E0,-2.395917664E0,1.662158524E1,1.704856035E1
2.755228667E0,2.700983276E0,-1.343905334E0,1.739098526E1,1.765071558E1
2.765187667E0,2.690056000E0,-1.302291870E-1,1.853520584E1,1.872984828E1
2.775146667E0,2.572849731E0,1.173409882E0,1.978929794E1,1.999031665E1
2.785105667E0,2.178869019E0,2.540816345E0,2.033117111E1,2.060484741E1
2.795065667E0,1.934726715E0,3.686384125E0,2.055435699E1,2.097174735E1
2.805024667E0,1.550176392E0,4.455185394E0,2.067186264E1,2.120324571E1
2.814983667E0,1.468596039E0,5.164709930E0,2.097842514E1,2.165468366E1
2.824942667E0,1.501976624E0,5.994135132E0,2.128962799E1,2.216830733E1
2.834901667E0,9.144483948E-1,6.817722473E0,2.124636795E1,2.233216753E1
2.844860667E0,5.177732849E-1,7.402705994E0,2.147464325E1,2.272066126E1
2.854819667E0,6.791377258E-1,7.508984985E0,2.192191315E1,2.318224233E1
2.864779667E0,1.325343933E0,7.476352844E0,2.172013275E1,2.300905376E1
2.874738667E0,1.885179749E0,7.149432678E0,2.097588043E1,2.224085993E1
2.884697667E0,2.320175171E0,6.450386353E0,2.021411453E1,2.134481490E1
2.894656667E0,2.771037598E0,5.641917572E0,1.955219101E1,2.053772277E1
2.904615667E0,2.862647095E0,4.738546143E0,1.872845398E1,1.952955597E1
2.914574667E0,2.593506775E0,3.767515411E0,1.764336044E1,1.822659095E1
2.924533667E0,2.203268280E0,2.714904327E0,1.655377625E1,1.691900129E1
2.934493667E0,1.931583252E0,1.529219971E0,1.554442520E1,1.573844600E1
2.944452667E0,1.701511688E0,3.752696228E-1,1.445873291E1,1.456334188E1
2.954411667E0,1.414558411E0,-4.090992737E-1,1.372840164E1,1.380714849E1
2.964370667E0,1.191671906E0,-7.213499451E-1,1.341600128E1,1.348812508E1
2.974329667E0,1.039737854E0,-7.390132141E-1,1.297606613E1,1.303861525E1
2.984288667E0,8.442443848E-1,-8.631051636E-1,1.247685425E1,1.253513426E1
2.994247667E0,6.812333679E-1,-1.239721985E0,1.241158997E1,1.249193960E1
3.004207667E0,8.825646973E-1,-1.560804291E0,1.261995667E1,1.274669905E1
3.014166667E0,1.235830078E0,-1.698068848E0,1.233210526E1,1.250965762E1
3.024125667E0,1.280587006E0,-1.521136780E0,1.232761459E1,1.248694685E1
3.034084667E0,1.113833771E0,-1.194366302E0,1.287936722E1,1.298249731E1
3.044043667E0,8.414002991E-1,-7.915539551E-1,1.312740143E1,1.317813266E1
3.054002667E0,2.402503967E-1,-3.658392334E-1,1.289388702E1,1.290131316E1
3.063961667E0,-4.411326599E-1,-4.155358887E-1,1.313608337E1,1.315005530E1
3.073921667E0,-9.490264893E-1,-1.065933380E0,1.338711136E1,1.346297203E1
3.083880667E0,-9.517208862E-1,-1.626966705E0,1.291140060E1,1.304825884E1
3.093839667E0,-6.948550415E-1,-2.019450531E0,1.227043350E1,1.245490033E1
3.103798667E0,-2.103126526E-1,-2.334096222E0,1.182840271E1,1.205833103E1
3.113757667E0,8.532257080E-2,-2.692600708E0,1.162692169E1,1.193493555E1
3.123716708E0,2.721340942E-1,-2.868484955E0,1.120045853E1,1.156514306E1
3.133675708E0,7.650590515E-1,-3.221151581E0,1.086530548E1,1.135852086E1
3.143635708E0,1.781894531E0,-3.324586487E0,1.053045181E1,1.118563538E1
3.153594708E0,2.565514984E0,-3.093916168E0,1.019709503E1,1.096060817E1
3.163553708E0,2.794089661E0,-2.930605774E0,1.000414627E1,1.079251268E1
3.173512708E0,2.194137268E0,-3.018173676E0,9.808503113E0,1.049430055E1
3.183471708E0,1.104104004E0,-3.129392395E0,9.627230072E0,1.018310863E1
3.193430708E0,3.035687256E-1,-3.168161774E0,9.544751587E0,1.006139582E1
3.203389708E0,-1.477427673E-1,-3.168610840E0,9.493108978E0,1.000904794E1
3.213349708E0,-5.294490051E-1,-3.112627258E0,9.348060608E0,9.866863829E0
3.223308708E0,-5.539979553E-1,-3.049608307E0,8.844657440E0,9.372032319E0
3.233267708E0,-3.180885315E-1,-3.076402588E0,8.299640808E0,8.857170583E0
3.243226708E0,8.517288208E-2,-3.005150757E0,8.099956055E0,8.639876942E0
3.253185708E0,5.020559692E-1,-2.840642853E0,8.015980682E0,8.519228739E0
3.263144708E0,1.097368011E0,-2.622247009E0,7.966433716E0,8.458395952E0
3.273103708E0,1.660197601E0,-2.085014191E0,7.885901184E0,8.324120238E0
3.283063708E0,1.413061523E0,-1.784439240E0,7.797435150E0,8.122866562E0
3.293022708E0,7.619155884E-1,-1.791025543E0,8.079748077E0,8.310873411E0
3.302981708E0,-8.292755127E-2,-1.869312744E0,8.118816833E0,8.331650130E0
3.312940708E0,-6.397695923E-1,-2.004781036E0,7.514822845E0,7.803910208E0
3.322899708E0,-8.187973022E-1,-2.146985321E0,7.238647156E0,7.594602533E0
3.332858708E0,-8.307723999E-1,-2.348017273E0,7.178921356E0,7.598702503E0
3.342817708E0,-5.773493958E-1,-2.427651672E0,6.883884888E0,7.322205686E0
3.352777708E0,-3.674858093E-1,-2.705623627E0,6.711742859E0,7.245891059E0
3.362736708E0,-1.606159973E-1,-2.987038422E0,6.509663086E0,7.164070737E0
3.372695708E0,-3.427871704E-2,-3.132386169E0,5.937253418E0,6.712972240E0
3.382654708E0,5.777984619E-2,-3.459605713E0,5.757926331E0,6.717583332E0
3.392613708E0,1.480421448E-1,-4.113146667E0,6.075565796E0,7.338418885E0
3.402572708E0,3.038681030E-2,-4.744982758E0,5.975573730E0,7.630417167E0
3.412531708E0,-2.177970886E-1,-5.226830750E0,5.574707336E0,7.644903998E0
3.422491708E0,-3.203338623E-1,-5.628894653E0,5.633984070E0,7.970498435E0
3.432450708E0,-1.824705505E-1,-5.988746338E0,6.020630035E0,8.493901590E0
3.442409708E0,-5.433700562E-2,-6.182144165E0,6.255641327E0,8.795163864E0
3.452368708E0,1.213975525E-1,-6.064937897E0,6.675368500E0,9.019908739E0
3.462327708E0,3.390449524E-1,-6.098019104E0,7.359445953E0,9.563588930E0
3.472286708E0,5.851332092E-1,-6.193819885E0,7.908354492E0,1.006219938E1
3.482245708E0,7.587721252E-1,-6.374194794E0,8.303383026E0,1.049534488E1
3.492205708E0,7.439529419E-1,-6.664291534E0,8.782686310E0,1.104996952E1
3.502164708E0,8.936416626E-1,-6.649622040E0,9.635912018E0,1.174167233E1
3.512123708E0,9.945318604E-1,-6.541696472E0,1.059152481E1,1.248852610E1
3.522082708E0,1.006956024E0,-6.317612457E0,1.158321259E1,1.323242236E1
3.532041708E0,1.076411591E0,-6.061495056E0,1.257924133E1,1.400491688E1
3.542000708E0,9.768685913E-1,-5.707331543E0,1.327978455E1,1.448725589E1
3.551959708E0,4.962181091E-1,-5.433850250E0,1.380609009E1,1.484523777E1
3.561919708E0,-2.896476746E-1,-5.098846893E0,1.463581467E1,1.550126467E1
3.571878708E0,-9.566606140E-1,-4.701423340E0,1.575518692E1,1.646950199E1
3.581837708E0,-1.715133362E0,-3.930227051E0,1.681917435E1,1.735721731E1
3.591796708E0,-1.731599121E0,-3.115920410E0,1.759276566E1,1.795028688E1
3.601755708E0,-1.284029846E0,-2.380350037E0,1.830004486E1,1.849882269E1
3.611714708E0,-8.406518555E-1,-1.467248840E0,1.890823013E1,1.898369515E1
3.621673708E0,-5.195695496E-1,-4.185296631E-1,1.924907135E1,1.926062999E1
3.631633708E0,4.525090027E-1,5.222639465E-1,1.976864090E1,1.978071503E1
3.641592708E0,5.872288513E-1,1.587598572E0,2.000634659E1,2.007782884E1
3.651551708E0,-1.429527283E-1,2.199675751E0,2.006277924E1,2.018351108E1
3.661510708E0,-8.041278076E-1,2.718496857E0,2.029045578E1,2.048754359E1
3.671469708E0,-1.092577972E0,2.944227448E0,2.038251434E1,2.062302337E1
3.681428708E0,-7.342231750E-1,2.838547211E0,2.047277664E1,2.068165896E1
3.691387708E0,4.430786133E-2,2.565215607E0,2.023492126E1,2.039691969E1
3.701347708E0,1.051263885E0,2.391726379E0,1.950533844E1,1.967952587E1
3.711306708E0,1.854194183E0,2.088756409E0,1.873384277E1,1.894090295E1
3.721265708E0,2.387086029E0,1.708247681E0,1.808314590E1,1.831983776E1
3.731224708E0,2.607128448E0,1.327289886E0,1.725881012E1,1.750500911E1
3.741183708E0,2.647095337E0,9.505233765E-1,1.664987640E1,1.688576302E1
3.751142708E0,2.726130981E0,5.839356995E-1,1.612641495E1,1.636563565E1
3.761101708E0,2.640209656E0,9.175918579E-2,1.541943512E1,1.564410771E1
3.771061708E0,2.401755524E0,-5.972579956E-1,1.493025238E1,1.513398767E1
3.781020708E0,2.050885162E0,-1.389410706E0,1.456351501E1,1.477269649E1
3.790979708E0,1.704954529E0,-1.943258972E0,1.402852753E1,1.426473659E1
3.800938708E0,1.511706390E0,-2.221829681E0,1.356524094E1,1.382886637E1
3.810897708E0,1.428180084E0,-2.331252136E0,1.331990112E1,1.359758070E1
3.820856708E0,1.386416931E0,-2.157613220E0,1.314087341E1,1.338880132E1
3.830815708E0,1.140478363E0,-1.834285583E0,1.300465668E1,1.318280660E1
3.840775708E0,7.650590515E-1,-1.545086975E0,1.286379959E1,1.297882695E1
3.850734708E0,6.358776855E-1,-1.360969849E0,1.308414139E1,1.317009245E1
3.860693708E0,5.870791626E-1,-1.270258484E0,1.330747696E1,1.338085056E1
3.870652708E0,4.674778748E-1,-1.088386688E0,1.317155960E1,1.322471563E1
3.880611708E0,2.353106689E-1,-9.674382019E-1,1.318652847E1,1.322406295E1
3.890570708E0,-5.822891235E-2,-8.909472656E-1,1.332005081E1,1.334994125E1
3.900529708E0,-3.186872864E-1,-9.283694458E-1,1.353979385E1,1.357532501E1
3.910489708E0,-5.529501343E-1,-1.286873932E0,1.395218628E1,1.402231437E1
3.920448708E0,-7.400610352E-1,-1.370998993E0,1.360071716E1,1.368966164E1
3.930407708E0,-7.774832153E-1,-1.436562653E0,1.340342743E1,1.350259454E1
3.940366708E0,-5.767506409E-1,-1.640738068E0,1.349249222E1,1.360411735E1
3.950325708E0,-2.160008240E-1,-1.747765503E0,1.343126953E1,1.354622980E1
3.960284708E0,8.532257080E-3,-1.738035736E0,1.323742264E1,1.335103738E1
3.970243708E0,4.644841003E-1,-1.748513947E0,1.330508194E1,1.342751846E1
3.980203708E0,1.067729645E0,-1.917811890E0,1.333292404E1,1.351239847E1
3.990162708E0,1.179846497E0,-1.957329712E0,1.275407776E1,1.295722489E1
4.000121708E0,9.279203796E-1,-2.068847809E0,1.242880417E1,1.263393607E1
4.010080708E0,6.890171814E-1,-2.267484741E0,1.227806763E1,1.250468618E1
4.020039708E0,4.667294312E-1,-2.572999420E0,1.196761322E1,1.224997668E1
4.029998708E0,4.140390015E-1,-2.877166901E0,1.153650970E1,1.189708258E1
4.039957708E0,3.864962769E-1,-3.172203369E0,1.112112350E1,1.157115559E1
4.049917708E0,1.820214844E-1,-3.546275482E0,1.066083069E1,1.123665932E1
4.059876708E0,6.945556641E-2,-3.903881836E0,1.021790176E1,1.093849322E1
4.069835708E0,-8.098159790E-2,-4.372407532E0,9.770781555E0,1.070479695E1
4.079794708E0,-1.752854919E-1,-4.742587738E0,8.882229309E0,1.007059387E1
4.089753708E0,-7.858657837E-2,-4.789140930E0,8.006699982E0,9.330020970E0
4.099712708E0,8.068222046E-2,-4.684658203E0,7.526348877E0,8.865577224E0
4.109671708E0,1.266366577E-1,-4.610562286E0,7.224875793E0,8.571589798E0
4.119631167E0,1.263372803E-1,-4.579576721E0,7.030280457E0,8.391264943E0
4.129591167E0,8.816665649E-2,-4.475393372E0,6.662944336E0,8.026938795E0
4.139550167E0,1.092727661E-2,-4.306095428E0,6.161337433E0,7.516957909E0
4.149509167E0,-1.420545959E-1,-4.193679199E0,5.785169678E0,7.146699443E0
4.159468167E0,-2.383044434E-1,-4.210594025E0,5.663622437E0,7.061339119E0
4.169427167E0,-3.432362366E-1,-4.215683441E0,5.538332977E0,6.968710796E0
4.179386167E0,-3.947291565E-1,-4.057013397E0,5.238506470E0,6.637553679E0
4.189345167E0,-3.969744873E-1,-3.872746582E0,5.149741058E0,6.455663235E0
4.199305167E0,-3.402424622E-1,-3.787573700E0,5.510790253E0,6.695542448E0
4.209264167E0,-2.480342102E-1,-3.660487976E0,5.562283173E0,6.663309034E0
4.219223167E0,-2.378553772E-1,-3.491040344E0,5.458997955E0,6.484180483E0
4.229182167E0,-3.118016052E-1,-3.376229095E0,5.431455231E0,6.402878186E0
4.239141167E0,-4.355941772E-1,-3.302133179E0,5.473817139E0,6.407534618E0
4.249100167E0,-5.598358154E-1,-3.268752594E0,5.806275787E0,6.686628312E0
4.259060167E0,-5.674699402E-1,-3.342249756E0,6.256689148E0,7.116095464E0
4.269019167E0,-5.842350769E-1,-3.437002716E0,6.464157715E0,7.344362005E0
4.278978167E0,-6.186634827E-1,-3.566483459E0,6.636000366E0,7.559037613E0
4.288937167E0,-6.162684631E-1,-3.916605377E0,6.843917999E0,7.909411993E0
4.298896167E0,-5.200186157E-1,-4.193230133E0,6.885681152E0,8.078750104E0
4.308855167E0,-2.689906311E-1,-4.343068542E0,6.850504303E0,8.115664454E0
4.318814167E0,-1.610650635E-1,-4.558021545E0,6.970105591E0,8.329698332E0
4.328773167E0,-2.302212524E-1,-4.752467194E0,7.447462921E0,8.837626956E0
4.338733167E0,-3.484753418E-1,-4.677173767E0,8.167016602E0,9.417937655E0
4.348692167E0,-4.638853455E-1,-4.452490997E0,9.048234100E0,1.009506840E1
4.358651167E0,-4.369413757E-1,-3.796854401E0,1.038001465E1,1.106127141E1
4.368610167E0,-3.646417236E-1,-3.024460602E0,1.109013794E1,1.150093409E1
4.378569167E0,-3.162922668E-1,-2.750829620E0,1.109343109E1,1.143377968E1
4.388528167E0,4.400848389E-2,-3.222947845E0,1.170505920E1,1.214074712E1
4.398487167E0,-1.691482544E-1,-4.031865692E0,1.185085602E1,1.251907906E1
4.408447167E0,-5.939648438E-1,-4.350702667E0,1.181044006E1,1.260031358E1
4.418406167E0,-1.058898010E0,-4.067491608E0,1.245095810E1,1.314123703E1
4.428365167E0,-1.522334290E0,-3.195704498E0,1.385114639E1,1.429630320E1
4.438324167E0,-1.927841034E0,-1.697320404E0,1.560879135E1,1.581871787E1
4.448283167E0,-2.205812988E0,1.007405090E-1,1.697799408E1,1.712098252E1
4.458242167E0,-2.121687927E0,1.872156830E0,1.814362015E1,1.836293775E1
4.468201167E0,-2.144440613E0,3.348237305E0,1.863774261E1,1.905714481E1
4.478161167E0,-2.183808746E0,4.254003754E0,1.881138153E1,1.940962760E1
4.488120167E0,-2.196083221E0,4.870421906E0,1.906480453E1,1.979925663E1
4.498079167E0,-2.206711121E0,5.447172546E0,1.923440186E1,2.011227181E1
4.508038167E0,-2.279010773E0,5.952970734E0,1.935250626E1,2.037526071E1
4.517997167E0,-2.641407166E0,6.586453400E0,1.936747513E1,2.062662098E1
4.527956167E0,-2.743943939E0,7.284152527E0,1.944127167E1,2.094161289E1
4.537915167E0,-2.683170319E0,7.684420166E0,1.925775330E1,2.090719441E1
4.547875167E0,-2.564766541E0,7.663463745E0,1.880015488E1,2.046344368E1
4.557834167E0,-1.862876129E0,7.373666382E0,1.840587479E1,1.991525772E1
4.567793167E0,-1.198856964E0,6.833439789E0,1.779903671E1,1.910337314E1
4.577752167E0,-6.135740662E-1,6.179150391E0,1.724488907E1,1.832879079E1
4.587711167E0,-7.140151978E-2,5.533542938E0,1.669059174E1,1.758411352E1
4.597670167E0,1.860630798E-1,4.947212219E0,1.597657654E1,1.672604335E1
4.607629167E0,1.441502380E-1,4.395908661E0,1.544967224E1,1.606353525E1
4.617589167E0,2.868035889E-1,3.882626038E0,1.512769180E1,1.562063061E1
4.627548167E0,3.282673645E-1,3.371588745E0,1.479208969E1,1.517502183E1
4.637507167E0,4.167333984E-1,2.965183868E0,1.436487808E1,1.467363978E1
4.647466167E0,5.780978394E-1,2.612217865E0,1.401520523E1,1.426828150E1
4.657425167E0,5.330415344E-1,2.439177704E0,1.372391098E1,1.394917394E1
4.667384167E0,4.171824646E-1,2.385888519E0,1.355401428E1,1.376872574E1
4.677343167E0,6.144721985E-1,2.554288330E0,1.346629669E1,1.372017170E1
4.687303167E0,7.185058594E-1,2.698438568E0,1.325284058E1,1.354384010E1
4.697262167E0,7.008425903E-1,2.735112305E0,1.315539322E1,1.345497642E1
4.707221167E0,5.801934814E-1,2.696791992E0,1.318563034E1,1.347108604E1
4.717180167E0,3.996688843E-1,2.608775024E0,1.327948517E1,1.353920857E1
4.727139167E0,1.422042847E-1,2.588866425E0,1.316572174E1,1.341859458E1
4.737098167E0,-2.338137817E-1,2.439776459E0,1.315449509E1,1.338087886E1
4.747057167E0,-6.605763245E-1,2.317031708E0,1.324790085E1,1.346520976E1
4.757017167E0,-9.644444275E-1,2.295476532E0,1.346090790E1,1.368924421E1
4.766976167E0,-1.053060150E0,2.219135284E0,1.382599869E1,1.404249753E1
4.776935167E0,-1.002465363E0,2.292632446E0,1.396026947E1,1.418274388E1
4.786894167E0,-8.328680420E-1,2.378853149E0,1.374456802E1,1.397375260E1
4.796853167E0,-5.774990845E-1,1.952389984E0,1.402224060E1,1.416928238E1
4.806812167E0,-4.444258118E-1,1.374441833E0,1.397029861E1,1.404478010E1
4.816771167E0,-5.195695496E-1,7.685018921E-1,1.372391098E1,1.375522738E1
4.826731167E0,-7.673043823E-1,1.254391479E-1,1.337004684E1,1.339263393E1
4.836690167E0,-8.716374207E-1,-4.712200928E-1,1.315180069E1,1.318907357E1
4.846649167E0,-7.939489746E-1,-7.352709961E-1,1.288221130E1,1.292758084E1
4.856608167E0,-8.195457458E-1,-9.410929871E-1,1.253433472E1,1.259630335E1
4.866567167E0,-8.150550842E-1,-1.331481171E0,1.227821732E1,1.237706659E1
4.876526167E0,-8.006849670E-1,-1.778152313E0,1.192375443E1,1.208217040E1
4.886485167E0,-7.584727478E-1,-2.222278748E0,1.137783966E1,1.161761762E1
4.896445167E0,-7.252418518E-1,-2.607876892E0,1.086261108E1,1.119478973E1
4.906404167E0,-5.697152710E-1,-2.912643127E0,1.064616119E1,1.105209544E1
4.916363167E0,-3.162922668E-1,-3.022364960E0,1.010728180E1,1.055423498E1
4.926322167E0,-1.972897339E-1,-3.053799591E0,9.509574738E0,9.989826168E0
4.936281167E0,-1.537303162E-1,-3.268303528E0,9.359137573E0,9.914580025E0
4.946240167E0,-1.163081360E-1,-3.435655518E0,9.254954224E0,9.872762233E0
4.956199167E0,-4.038601685E-1,-3.591481476E0,8.843010864E0,9.553045764E0
4.966159167E0,-8.783734131E-1,-3.661086731E0,8.200097809E0,9.023120302E0
4.976118167E0,-1.374741211E0,-3.810775452E0,7.750732269E0,8.745614538E0
4.986077167E0,-1.786235504E0,-3.956721954E0,7.479047241E0,8.647683709E0
4.996036167E0,-1.906136169E0,-3.996688843E0,7.093149719E0,8.361797040E0
5.005995167E0,-1.831142120E0,-4.000431061E0,6.562952271E0,7.901194381E0
5.015954167E0,-1.605860596E0,-4.032464447E0,6.126759338E0,7.508444430E0
5.025913167E0,-1.281485138E0,-4.043391724E0,6.055507507E0,7.393266664E0
5.035873167E0,-1.077459412E0,-4.170477448E0,5.888454895E0,7.295731764E0
5.045832167E0,-8.794212341E-1,-4.174219666E0,5.330265656E0,6.827094805E0
5.055791167E0,-7.099736023E-1,-4.141587524E0,5.035827942E0,6.558686820E0
5.065750167E0,-4.495152283E-1,-4.040397949E0,5.098697205E0,6.521011633E0
5.075709167E0,-3.158432007E-1,-3.889811096E0,5.280569000E0,6.566185823E0
5.085668167E0,-3.561094666E-1,-3.758683777E0,5.466482391E0,6.643564361E0
5.095627167E0,-3.869453430E-1,-3.553310852E0,5.654042358E0,6.689091097E0
5.105587167E0,-3.962260437E-1,-3.478167114E0,5.769901428E0,6.748807602E0
5.115546167E0,-4.561015320E-1,-3.640878754E0,5.922134857E0,6.966757350E0
5.125504958E0,-4.605921936E-1,-3.804787903E0,6.108347626E0,7.211134923E0
5.135463958E0,-3.632945251E-1,-4.073628845E0,6.308032379E0,7.517825974E0
5.145422958E0,-2.959346008E-1,-4.314927063E0,6.408922577E0,7.731782553E0
5.155381958E0,-3.369493103E-1,-4.515509949E0,6.727011108E0,8.109010013E0
5.165340958E0,-6.224057007E-1,-4.759203186E0,7.247478790E0,8.692718369E0
5.175300958E0,-7.128176880E-1,-4.763843536E0,7.762258301E0,9.135369080E0
5.185259958E0,-5.351371765E-1,-4.686753845E0,8.590935059E0,9.800826424E0
5.195218958E0,-4.123924255E-1,-4.558919678E0,9.247020721E0,1.031800409E1
5.205177958E0,-2.113604736E-1,-4.439617767E0,9.729317780E0,1.069647155E1
5.215136958E0,-2.317181396E-1,-4.350103912E0,1.040965302E1,1.128441284E1
5.225095958E0,-5.072950745E-1,-4.186793518E0,1.133098709E1,1.209040350E1
5.235054958E0,-8.704399109E-1,-3.888613586E0,1.214619186E1,1.278315134E1
5.245014958E0,-1.038540344E0,-3.515738983E0,1.295316376E1,1.346192549E1
5.254973958E0,-1.124761047E0,-3.104544067E0,1.393392426E1,1.431982983E1
5.264932958E0,-1.059646454E0,-2.497855682E0,1.492157043E1,1.516625853E1
5.274891958E0,-6.526428223E-1,-1.785337372E0,1.570698715E1,1.582159340E1
5.284850958E0,-3.365002441E-1,-1.103056183E0,1.667652100E1,1.671634882E1
5.294809958E0,2.395019531E-3,-4.251159668E-1,1.735326370E1,1.735847028E1
5.304768958E0,4.281097412E-2,5.210664368E-1,1.810095886E1,1.810850780E1
5.314728958E0,-1.037193146E0,1.512005768E0,1.881377655E1,1.890291298E1
5.324687958E0,-2.051334229E0,2.366578674E0,1.932601135E1,1.957813529E1
5.334646958E0,-2.287393341E0,3.149300995E0,2.008014313E1,2.045390948E1
5.344605958E0,-1.570683746E0,4.088448029E0,2.046768723E1,2.093104572E1
5.354564958E0,-6.054908752E-1,5.005590820E0,2.024225601E1,2.086076430E1
5.364523958E0,-1.528321838E-1,5.625302124E0,2.007849655E1,2.085217987E1
5.374482958E0,2.389031982E-1,6.187083893E0,2.009271698E1,2.102508876E1
5.384442958E0,8.560697937E-1,6.459367676E0,2.022369461E1,2.124744949E1
5.394401958E0,1.559906158E0,6.600973206E0,2.006816803E1,2.118342566E1
5.404360958E0,2.105671234E0,6.568341064E0,1.955937607E1,2.073996499E1
5.414319958E0,2.309696960E0,6.269113312E0,1.894729889E1,2.009070972E1
5.424278958E0,2.326013031E0,5.728287964E0,1.831157089E1,1.932711174E1
5.434237958E0,2.171833649E0,5.172044678E0,1.762180527E1,1.849310489E1
5.444196958E0,1.872755585E0,4.460873566E0,1.722034012E1,1.788705454E1
5.454156958E0,1.442400513E0,3.657943268E0,1.688054672E1,1.733245297E1
5.464115958E0,1.001716919E0,2.943628693E0,1.632849472E1,1.662191705E1
5.474074958E0,7.979905701E-1,2.360740814E0,1.577434708E1,1.596996906E1
5.484033958E0,8.925938416E-1,1.773062897E0,1.537782166E1,1.550541437E1
5.493992958E0,1.088985443E0,1.297651520E0,1.475975693E1,1.485665552E1
5.503951958E0,1.203946381E0,1.011446686E0,1.422836197E1,1.431498500E1
5.513910958E0,1.120120697E0,7.972421265E-1,1.401909714E1,1.408635332E1
5.523870958E0,9.099577332E-1,7.797285461E-1,1.387015686E1,1.392182643E1
5.533829958E0,5.650749207E-1,9.026229858E-1,1.386072647E1,1.390157460E1
5.543788958E0,2.173480225E-1,1.080453186E0,1.382764526E1,1.387149569E1
5.553747958E0,5.373825073E-2,1.141975250E0,1.382046021E1,1.386766439E1
5.563706958E0,-7.813751221E-2,1.105301514E0,1.370834335E1,1.375305328E1
5.573665958E0,-3.472778320E-2,1.033001862E0,1.358604767E1,1.362530697E1
5.583624958E0,2.649490356E-2,8.297245789E-1,1.337648346E1,1.340221827E1
5.593584958E0,1.472937012E-1,5.152285767E-1,1.312829956E1,1.313923153E1
5.603543958E0,2.026785278E-1,7.664062500E-2,1.293714706E1,1.293896157E1
5.613502958E0,3.171903992E-1,-3.162922668E-1,1.267324585E1,1.268115968E1
5.623461958E0,3.468287659E-1,-6.734495544E-1,1.230546066E1,1.232875446E1
5.633420958E0,2.665956116E-1,-9.957293701E-1,1.198467773E1,1.202892558E1
5.643379958E0,1.935475159E-1,-1.368454285E0,1.174203232E1,1.182308973E1
5.653338958E0,1.661544800E-1,-1.802401886E0,1.146121628E1,1.160326413E1
5.663298958E0,-3.891906738E-3,-2.213896179E0,1.109028763E1,1.130910390E1
5.673257958E0,-2.130070496E-1,-2.682272186E0,1.080737595E1,1.113729460E1
5.683216958E0,-4.688250732E-1,-3.200943604E0,1.049228119E1,1.097969952E1
5.693175958E0,-7.015910339E-1,-3.522025909E0,9.695937195E0,1.033963706E1
5.703134958E0,-9.210346985E-1,-3.765419769E0,9.062903595E0,9.857124963E0
5.713093958E0,-1.060095520E0,-4.046086121E0,8.784033508E0,9.729021538E0
5.723052958E0,-9.467811584E-1,-4.136198730E0,8.534951477E0,9.531523027E0
5.733012958E0,-8.170010376E-1,-4.212839355E0,8.201145630E0,9.256041042E0
5.742971958E0,-8.541238403E-1,-4.262086945E0,7.746391296E0,8.882651112E0
5.752930958E0,-1.017434235E0,-4.169579315E0,7.409142609E0,8.562473841E0
5.762889958E0,-1.231638794E0,-4.050427094E0,7.313042450E0,8.450058203E0
5.772848958E0,-1.394649811E0,-3.980821838E0,7.220983887E0,8.362690888E0
5.782807958E0,-1.568438416E0,-4.086202698E0,7.018455048E0,8.271382158E0
5.792766958E0,-1.620829468E0,-4.221521301E0,6.782994690E0,8.152137586E0
5.802726958E0,-1.626367950E0,-4.235592041E0,6.441554718E0,7.879018964E0
5.812685958E0,-1.600621490E0,-4.288581848E0,6.229595490E0,7.730574583E0
5.822644958E0,-1.537003784E0,-4.316873016E0,6.202651520E0,7.711722191E0
5.832603958E0,-1.598376160E0,-4.422104187E0,6.073021088E0,7.680585715E0
5.842562958E0,-1.607207794E0,-4.390819244E0,5.911656647E0,7.537247166E0
5.852521958E0,-1.509311371E0,-4.325105896E0,6.025270386E0,7.568913069E0
5.862480958E0,-1.315165100E0,-4.240232391E0,6.051615601E0,7.505416801E0
5.872440958E0,-1.047222290E0,-4.195774841E0,6.130950623E0,7.502649971E0
5.882399958E0,-9.030720520E-1,-4.266876984E0,6.307134247E0,7.668228005E0
5.892358958E0,-8.910969543E-1,-4.337829437E0,6.403384094E0,7.785508710E0
5.902317958E0,-8.797206116E-1,-4.400249634E0,6.507118378E0,7.904346575E0
5.912276958E0,-9.672885132E-1,-4.492308197E0,6.638545074E0,8.073831848E0
5.922235958E0,-9.690847778E-1,-4.577930145E0,6.835685120E0,8.283909752E0
5.932194958E0,-9.933343506E-1,-4.798122253E0,7.094047852E0,8.621728667E0
5.942154958E0,-8.375083923E-1,-4.897964630E0,7.331903229E0,8.857103521E0
5.952113958E0,-6.462062073E-1,-4.908293152E0,7.672445068E0,9.131009662E0
5.962072958E0,-4.472698975E-1,-4.982389069E0,8.037086792E0,9.466732028E0
5.972031958E0,-3.960763550E-1,-5.076543274E0,8.491392059E0,9.901106362E0
5.981990958E0,-4.650828552E-1,-5.113366699E0,8.938063202E0,1.030785113E1
5.991949958E0,-5.596861267E-1,-5.162464600E0,9.382489014E0,1.072359032E1
6.001908958E0,-5.034031677E-1,-5.022355957E0,9.922715607E0,1.113273368E1
6.011868958E0,-2.309696960E-1,-4.964426422E0,1.064421524E1,1.174726329E1
6.021827958E0,-2.574645996E-2,-4.932842102E0,1.145642624E1,1.247330334E1
6.031786958E0,3.062631226E-1,-4.658163300E0,1.212538513E1,1.299296914E1
6.041745958E0,4.718188477E-1,-4.415667572E0,1.264809814E1,1.340504084E1
6.051704958E0,4.867877197E-1,-4.213737488E0,1.337513626E1,1.403163625E1
6.061663958E0,2.242337036E-1,-4.056863708E0,1.391251877E1,1.449367456E1
6.071622958E0,-3.224295044E-1,-3.731739807E0,1.454210953E1,1.501675039E1
6.081582958E0,-6.674620056E-1,-3.694916382E0,3.031765411E1,3.054927272E1
6.091541958E0,4.116439819E-2,2.400558014E0,7.787705383E0,8.149400495E0
6.101500958E0,-1.569037170E0,-6.803352356E-1,6.125711517E0,6.359958747E0
6.111459958E0,3.906875610E-1,-4.021387482E0,2.445689163E1,2.478837918E1
6.121419167E0,6.418652344E-1,-1.156644745E0,2.055121353E1,2.059374166E1
6.131378167E0,-5.448669434E-2,9.602531433E-1,1.707993210E1,1.710699083E1
6.141337167E0,-9.580078125E-2,2.053280182E0,1.838252335E1,1.849708901E1
6.151297167E0,1.227447510E-1,2.695893860E0,2.095776810E1,2.113080580E1
6.161256167E0,8.074209595E-1,4.179009705E0,2.147120041E1,2.188900404E1
6.171215167E0,1.036444702E0,5.435197449E0,2.116688324E1,2.187812915E1
6.181174167E0,8.364605713E-1,5.939947815E0,2.098126923E1,2.182192257E1
6.191133167E0,3.577560425E-1,5.664071503E0,2.075853241E1,2.152037089E1
6.201092167E0,-1.121168518E-1,4.986430664E0,2.032952454E1,2.093243007E1
6.211051167E0,-2.781216431E-1,4.316873016E0,1.962598755E1,2.009706774E1
6.221011167E0,-8.652008057E-2,3.617078247E0,1.899639679E1,1.933788592E1
6.230970167E0,3.826043701E-1,2.969375153E0,1.822894272E1,1.847316777E1
6.240929167E0,9.184899902E-1,2.332000580E0,1.739846970E1,1.757807152E1
6.250888167E0,1.045575714E0,1.597927094E0,1.683803513E1,1.694597375E1
6.260847167E0,5.695655823E-1,8.671467590E-1,1.621233627E1,1.624549771E1
6.270806167E0,3.008743286E-2,1.516346741E-1,1.532722687E1,1.532800645E1
6.280765167E0,-2.035766602E-1,-5.854325867E-1,1.457459198E1,1.458776563E1
6.290725167E0,-5.493576050E-2,-1.072369995E0,1.381881363E1,1.386046916E1
6.300684167E0,4.911286926E-1,-1.248852997E0,1.328038330E1,1.334801191E1
6.310643167E0,1.061442719E0,-1.091230774E0,1.330298630E1,1.338980544E1
6.320602167E0,1.049317932E0,-6.953041077E-1,1.312096481E1,1.318120759E1
6.330561167E0,6.722520447E-1,-2.737806702E-1,1.281425262E1,1.283479447E1
6.340520167E0,2.457888794E-1,1.377136230E-2,1.262414795E1,1.262654796E1
6.350479167E0,2.903961182E-2,1.495390320E-1,1.244377304E1,1.244470541E1
6.360439167E0,8.337661743E-2,1.968406677E-1,1.242476257E1,1.242660142E1
6.370398167E0,2.811154175E-1,2.492317200E-1,1.229138992E1,1.229713009E1
6.380357167E0,3.321592712E-1,3.126997375E-1,1.200758011E1,1.201624280E1
6.390316167E0,3.927832031E-1,3.968247986E-1,1.185295166E1,1.186609505E1
6.400275167E0,6.388714600E-1,5.724096680E-1,1.198662369E1,1.201727744E1
6.410234167E0,6.307882690E-1,4.357438660E-1,1.192764633E1,1.195225977E1
6.420193167E0,5.465135193E-1,3.719764709E-1,1.175939621E1,1.177796429E1
6.430153167E0,4.363426208E-1,3.156935120E-1,1.178768738E1,1.179998436E1
6.440112167E0,2.477348328E-1,3.861968994E-2,1.178723831E1,1.178990462E1
6.450071167E0,-1.410067749E-1,-2.763253784E-1,1.183319275E1,1.183725852E1
6.460030167E0,-4.616400146E-1,-6.072871399E-1,1.146540756E1,1.149075627E1
6.469989167E0,-3.258723450E-1,-8.776249695E-1,1.102008362E1,1.105977673E1
6.479948167E0,7.364685059E-2,-1.106049957E0,1.092832443E1,1.098440009E1
6.489907167E0,3.086581421E-1,-1.301992493E0,1.081501007E1,1.089747205E1
6.499867167E0,2.862048340E-1,-1.703906708E0,1.075094330E1,1.088889311E1
6.509826167E0,1.612147522E-1,-2.576442261E0,1.106214615E1,1.135936276E1
6.519785167E0,-1.017883301E-2,-3.207978973E0,1.059481796E1,1.106984193E1
6.529744167E0,-2.625540161E-1,-3.364253998E0,9.493558044E0,1.007545453E1
6.539703167E0,-5.087919617E-1,-3.550616455E0,9.032816162E0,9.718925573E0
6.549662167E0,-7.533833313E-1,-3.812272339E0,8.982221375E0,9.786792511E0
6.559622167E0,-1.048270111E0,-3.858675842E0,8.612340546E0,9.495296686E0
6.569581167E0,-1.233734436E0,-3.762875061E0,8.259524231E0,9.159752721E0
6.579540167E0,-1.308279419E0,-3.836072845E0,8.384065247E0,9.312335903E0
6.589499167E0,-1.383123779E0,-4.116140442E0,8.324938202E0,9.389368434E0
6.599458167E0,-1.476978607E0,-4.262835388E0,7.782466278E0,8.995555165E0
6.609417167E0,-1.505419464E0,-4.359683990E0,7.233258362E0,8.578645510E0
6.619376167E0,-1.552122345E0,-4.536616058E0,7.055577850E0,8.530600673E0
6.629335167E0,-1.604663086E0,-4.655319214E0,6.902146912E0,8.478594966E0
6.639295167E0,-1.653311920E0,-4.698878632E0,6.514004059E0,8.200313993E0
6.649254167E0,-1.802252197E0,-4.727768555E0,6.470145264E0,8.213567326E0
6.659213167E0,-2.091750183E0,-4.886288910E0,6.644382935E0,8.508763877E0
6.669172167E0,-2.275268555E0,-5.105433197E0,6.601571960E0,8.650031646E0
6.679131167E0,-2.436782684E0,-5.193150787E0,6.484814758E0,8.657918191E0
6.689090167E0,-2.567910004E0,-5.199437714E0,6.578519897E0,8.769563180E0
6.699049167E0,-2.589016113E0,-5.181624756E0,6.829248505E0,8.954935772E0
6.709009167E0,-2.540067902E0,-5.205425262E0,7.110513611E0,9.171030526E0
6.718968167E0,-2.489922180E0,-5.166057129E0,7.108867035E0,9.133665707E0
6.728927167E0,-2.395169220E0,-5.205874329E0,7.137756958E0,9.153444024E0
6.738886167E0,-2.316732330E0,-5.481301575E0,7.224576416E0,9.359830128E0
6.748845167E0,-2.216141510E0,-5.738017731E0,7.580985260E0,9.762554388E0
6.758804167E0,-2.363285522E0,-6.032305756E0,7.879165192E0,1.020073896E1
6.768763167E0,-2.779420166E0,-6.130950623E0,8.089178467E0,1.052371324E1
6.778723167E0,-3.289259949E0,-6.261179810E0,8.747060394E0,1.124867411E1
6.788682167E0,-3.503165131E0,-6.605463867E0,9.133257294E0,1.180341932E1
6.798641167E0,-3.307671661E0,-6.824159088E0,9.313033447E0,1.201009705E1
6.808600167E0,-2.557581482E0,-7.134613495E0,9.841584320E0,1.242178388E1
6.818559167E0,-1.715133362E0,-7.498806152E0,1.039079224E1,1.292835409E1
6.828518167E0,-1.226998444E0,-7.389533386E0,1.080872314E1,1.315063591E1
6.838478167E0,-6.472540283E-1,-6.911277924E0,1.145702499E1,1.339582480E1
6.848437167E0,-1.836680603E-1,-6.217770081E0,1.290182053E1,1.432310621E1
6.858396167E0,-2.344125366E-1,-5.638474731E0,1.417791687E1,1.525977304E1
6.868355167E0,-5.652246094E-1,-5.222938843E0,1.456546097E1,1.548390203E1
6.878314167E0,-1.356179810E-1,-4.634213104E0,1.572135727E1,1.639071071E1
6.888273167E0,-1.407073975E-1,-3.758085022E0,1.710448105E1,1.751303153E1
6.898232167E0,-7.484436035E-2,-2.621049500E0,1.819436462E1,1.838233952E1
6.908192167E0,7.940986633E-1,-1.218615875E0,1.945534241E1,1.950963776E1
6.918151167E0,1.753453674E0,3.776646423E-1,2.074715607E1,2.082454598E1
6.928110167E0,2.680625610E0,2.119891663E0,2.194451614E1,2.220904057E1
6.938069167E0,3.039728851E0,3.522175598E0,2.278052765E1,2.325076585E1
6.948028167E0,2.506088562E0,4.661755829E0,2.337149872E1,2.396329275E1
6.957987167E0,1.491049347E0,5.880970459E0,2.383478531E1,2.459483752E1
6.967946167E0,6.509962463E-1,6.958130493E0,2.416544769E1,2.515568004E1
6.977906167E0,2.637515259E-1,7.703879700E0,2.434447540E1,2.553571636E1
6.987865167E0,5.456153870E-1,8.234376526E0,2.424717773E1,2.561304904E1
6.997824167E0,9.569599915E-1,8.275241547E0,2.368494690E1,2.510721221E1
7.007783167E0,1.310824127E0,7.731871490E0,2.269969574E1,2.401616712E1
7.017742167E0,1.622625732E0,6.845265198E0,2.186592957E1,2.296975067E1
7.027701167E0,1.679058380E0,5.710025940E0,2.123933258E1,2.205749038E1
7.037660167E0,1.556613007E0,4.369713135E0,2.061602875E1,2.113144761E1
7.047620167E0,1.193168793E0,2.890788574E0,1.977552658E1,2.002128272E1
7.057579167E0,7.969427490E-1,1.504970398E0,1.863115631E1,1.870882249E1
7.067538167E0,5.989045715E-1,7.903564453E-2,1.758977188E1,1.760014228E1
7.077497167E0,4.840933228E-1,-1.032852173E0,1.669148987E1,1.673042032E1
7.087456167E0,3.647914124E-1,-1.599274292E0,1.611982864E1,1.620307460E1
7.097415167E0,-6.451583862E-2,-1.767973480E0,1.560894104E1,1.570888070E1
7.107374167E0,-5.219645691E-1,-1.513802032E0,1.531390457E1,1.539739318E1
7.117334167E0,-8.693920898E-1,-1.143023071E0,1.530252823E1,1.536976625E1
7.127292417E0,-8.536747742E-1,-7.258406067E-1,1.498039810E1,1.502224792E1
7.137251417E0,-5.465135193E-1,-1.895059204E-1,1.490001526E1,1.491123886E1
7.147210417E0,-1.689985657E-1,-2.333647156E-1,1.550356018E1,1.550623739E1
7.157169417E0,-8.382568359E-3,-8.258326721E-1,1.587553665E1,1.589700393E1
7.167128417E0,-3.719764709E-1,-1.509461060E0,1.507095978E1,1.515092960E1
7.177087417E0,-6.993457031E-1,-1.736389160E0,1.435664520E1,1.447816954E1
7.187047417E0,-1.000220032E0,-1.872456207E0,1.402149216E1,1.418128255E1
7.197006417E0,-1.107397156E0,-1.776505737E0,1.364128281E1,1.380097452E1
7.206965417E0,-9.223818970E-1,-1.517993317E0,1.290301804E1,1.302470600E1
7.216924417E0,-4.757107544E-1,-1.215173035E0,1.247655487E1,1.254461509E1
7.226883417E0,-3.562591553E-2,-1.057251434E0,1.238763977E1,1.243272572E1
7.236842417E0,4.728666687E-1,-1.384321289E0,1.269989044E1,1.278386348E1
7.246801417E0,7.607180786E-1,-2.343676300E0,1.304237823E1,1.327309838E1
7.256761417E0,4.770579529E-1,-3.163671112E0,1.178559174E1,1.221214853E1
7.266720417E0,1.547781372E-1,-3.439098358E0,1.018077896E1,1.074707467E1
7.276679417E0,-1.913021851E-1,-3.809577942E0,9.358089752E0,1.010560856E1
7.286638417E0,-5.855822754E-1,-4.235142975E0,8.988208923E0,9.953252849E0
7.296597417E0,-9.446855164E-1,-4.316573639E0,8.138575745E0,9.260758816E0
7.306556417E0,-1.068029022E0,-4.065994720E0,7.380102997E0,8.493463328E0
7.316515417E0,-7.813751221E-1,-3.968697052E0,7.032226410E0,8.112540394E0
7.326475417E0,-5.325924683E-1,-3.990401917E0,6.689588928E0,7.807532403E0
7.336434417E0,-4.995112610E-1,-4.055965576E0,6.426735535E0,7.615989620E0
7.346393417E0,-6.361770630E-1,-4.449796600E0,6.378086700E0,7.802909778E0
7.356352417E0,-9.716294861E-1,-4.929399261E0,5.952371979E0,7.789337142E0
7.366311417E0,-1.384920044E0,-5.283113708E0,5.178181915E0,7.526145224E0
7.376270417E0,-1.917961578E0,-5.765560455E0,4.696782990E0,7.679845990E0
7.386229417E0,-2.324216766E0,-6.153852997E0,4.282893677E0,7.849526644E0
7.396189417E0,-2.618504791E0,-6.433920593E0,3.852388916E0,7.943097752E0
7.406148417E0,-2.772235107E0,-6.532715149E0,3.724105682E0,8.014400654E0
7.416107417E0,-2.792443085E0,-6.643185425E0,3.836970978E0,8.164067445E0
7.426066417E0,-2.608775024E0,-6.802304535E0,4.153862000E0,8.386395151E0
7.436025417E0,-2.428699493E0,-6.870562592E0,4.633764038E0,8.635680675E0
7.445984417E0,-2.312241669E0,-6.769073639E0,5.230123901E0,8.861208467E0
7.455944417E0,-2.470462646E0,-6.436465302E0,6.002368011E0,9.141099114E0
7.465903417E0,-2.678080902E0,-5.828429718E0,6.869365082E0,9.398451304E0
7.475862417E0,-2.632725220E0,-5.145849152E0,7.713759155E0,9.639143420E0
7.485821417E0,-2.265239410E0,-4.489314423E0,8.765621796E0,1.010551231E1
7.495780417E0,-1.971550140E0,-3.868854675E0,9.620344391E0,1.055490752E1
7.505739417E0,-1.550775146E0,-2.887345734E0,1.054377411E1,1.104141483E1
7.515698417E0,-9.999206543E-1,-1.577569427E0,1.182016983E1,1.196682838E1
7.525658417E0,-9.023236084E-1,-1.847158813E-1,1.301169205E1,1.304424922E1
7.535617417E0,-1.272204437E0,1.140628052E0,1.401011581E1,1.411392510E1
7.545576417E0,-1.344354401E0,2.217039642E0,1.539817932E1,1.561494412E1
7.555535417E0,-1.372944946E0,3.353925476E0,1.693069244E1,1.731421787E1
7.565494417E0,-1.277593231E0,4.675227814E0,1.800785248E1,1.864866618E1
7.575453417E0,-6.824308777E-1,6.028862915E0,1.903157364E1,1.997532716E1
7.585412417E0,-1.478924561E-1,7.220085754E0,1.970846603E1,2.098988194E1
7.595372417E0,2.406994629E-1,8.324189758E0,1.974469070E1,2.142901963E1
7.605331417E0,8.259823608E-1,9.118138733E0,1.976415024E1,2.178174317E1
7.615290417E0,1.458117828E0,9.741442566E0,1.998898270E1,2.228410286E1
7.625249417E0,1.684746552E0,1.015802628E1,1.995470398E1,2.245471175E1
7.635208417E0,1.760339355E0,1.028226791E1,1.968616241E1,2.227933614E1
7.645167417E0,1.865570526E0,1.011566437E1,1.888113647E1,2.150126353E1
7.655126417E0,2.251318359E0,9.718839569E0,1.793225967E1,2.052048279E1
7.665086417E0,2.541415100E0,9.080716553E0,1.720956253E1,1.962363999E1
7.675045417E0,2.553689575E0,8.200546875E0,1.619587051E1,1.833238995E1
7.685004417E0,2.389930115E0,7.335046692E0,1.501093460E1,1.687728750E1
7.694963417E0,2.321522369E0,6.389013977E0,1.391566223E1,1.548724059E1
7.704922417E0,2.333647156E0,5.533692627E0,1.312829956E1,1.443675561E1
7.714881417E0,2.117796021E0,4.849465485E0,1.237536530E1,1.345927344E1
7.724840417E0,1.803749084E0,4.249213715E0,1.160641434E1,1.249072383E1
7.734800417E0,1.747915192E0,3.638932800E0,1.131077911E1,1.200961130E1
7.744759417E0,1.395847321E0,2.994223480E0,1.078252762E1,1.127726322E1
7.754718417E0,8.189469910E-1,2.253114624E0,1.035097504E1,1.062496512E1
7.764677417E0,2.447410583E-1,1.534608765E0,9.886191559E0,1.000758241E1
7.774636417E0,-2.116598511E-1,8.960366821E-1,9.396709442E0,9.441706941E0
7.784595417E0,-5.412744141E-1,4.478686523E-1,8.951834564E0,8.979360021E0
7.794554417E0,-1.125808868E0,-1.322649536E0,8.612789612E0,8.786181896E0
7.804514417E0,-2.469414825E0,-4.532275085E0,8.818162537E0,1.021760821E1
7.814473417E0,-2.456541595E0,-1.511257324E0,9.062005463E0,9.509912634E0
7.824432417E0,-2.080224152E0,-7.009922791E-1,7.304061127E0,7.626796945E0
7.834391417E0,-1.806144104E0,-2.468367004E-1,7.868237915E0,8.076648610E0
7.844350417E0,-1.663191376E0,8.012837219E-1,8.122708740E0,8.329865451E0
7.854309417E0,-9.876461792E-1,1.588197327E0,8.144862671E0,8.356829761E0
7.864269417E0,-2.288740540E-1,2.342029724E0,8.740025024E0,9.051271954E0
7.874228417E0,3.302133179E-1,3.018922119E0,9.413923645E0,9.891657596E0
7.884187417E0,9.388476562E-1,4.361779633E0,9.552535400E0,1.054312520E1
7.894146417E0,1.190624084E0,5.332061920E0,9.100325775E0,1.061434874E1
7.904105417E0,9.437873840E-1,5.231770477E0,8.785081329E0,1.026838892E1
7.914064417E0,5.583389282E-2,4.832700348E0,8.859626312E0,1.009213003E1
7.924023417E0,-3.338058472E-2,4.472399597E0,1.008827133E1,1.103524766E1
7.933983417E0,1.438957672E0,5.238656158E0,1.051398605E1,1.183461112E1
7.943942417E0,5.304968262E-1,5.360951843E0,9.098679199E0,1.057389213E1
7.953901417E0,-2.612068176E-1,5.413342896E0,8.782386932E0,1.032002086E1
7.963860417E0,-1.549278259E-1,5.392386475E0,9.221723328E0,1.068372667E1
7.973819417E0,2.362088013E-1,4.788542175E0,9.337881775E0,1.049675982E1
7.983778417E0,5.700146484E-1,4.294569397E0,9.159153442E0,1.013204495E1
7.993737417E0,8.629554749E-1,4.118535461E0,8.940009155E0,9.880829428E0
8.003697417E0,7.430548096E-1,4.027075653E0,8.522976379E0,9.455717589E0
8.013656417E0,5.445675659E-1,4.311334534E0,7.839797058E0,8.963625227E0
8.023615417E0,5.399272156E-1,4.746928711E0,7.196734314E0,8.638161747E0
8.033574417E0,6.438111877E-1,5.098547516E0,6.830595703E0,8.547907187E0
8.043533417E0,9.002279663E-1,5.129383392E0,6.622079315E0,8.424542648E0
8.053492417E0,9.627978516E-1,4.866979065E0,6.768923950E0,8.392424939E0
8.063452417E0,1.100960541E0,4.697232056E0,7.065906372E0,8.555883120E0
8.073411417E0,1.510957947E0,4.659061432E0,7.448211365E0,8.914353587E0
8.083370417E0,1.911974030E0,4.612807617E0,7.872878265E0,9.322867101E0
8.093329417E0,1.970801697E0,4.669389954E0,8.019273834E0,9.486622934E0
8.103288417E0,1.838027802E0,4.759203186E0,8.066126404E0,9.544147753E0
8.113247417E0,1.798360291E0,4.972210236E0,8.191266174E0,9.749554651E0
8.123206958E0,1.756896515E0,5.161566467E0,8.338110809E0,9.962557183E0
8.133166958E0,1.525627441E0,5.231920166E0,8.484506378E0,1.008401588E1
8.143125958E0,1.392853546E0,5.331313477E0,8.506061554E0,1.013489159E1
8.153084958E0,1.573078766E0,5.394033051E0,8.317004700E0,1.003706812E1
8.163043958E0,1.737287292E0,5.401667175E0,7.930059357E0,9.751000811E0
8.173002958E0,1.664538574E0,5.355263672E0,7.541766815E0,9.398286246E0
8.182961958E0,1.632654877E0,5.333409119E0,7.290888519E0,9.179753274E0
8.192920958E0,1.742077332E0,5.338348846E0,7.083719330E0,9.039462450E0
8.202880958E0,1.902393951E0,5.420677643E0,6.873406677E0,8.958044887E0
8.212839958E0,1.913919983E0,5.484894104E0,6.811884613E0,8.952593201E0
8.222798958E0,1.901795197E0,5.594466248E0,6.881489868E0,9.070269035E0
8.232757958E0,1.892215118E0,5.654491425E0,6.954987030E0,9.161091415E0
8.242716958E0,1.779050446E0,5.715265045E0,7.179370422E0,9.347333025E0
8.252675958E0,1.734293518E0,5.847440186E0,7.376061401E0,9.571134339E0
8.262634958E0,1.783690796E0,5.866899719E0,7.678432617E0,9.826514775E0
8.272594958E0,1.739382935E0,5.941893768E0,8.043822784E0,1.015059799E1
8.282553958E0,1.871857452E0,5.923032990E0,8.056097260E0,1.017284981E1
8.292512958E0,1.834135895E0,5.770051117E0,7.948920135E0,9.992140696E0
8.302471958E0,1.724713440E0,5.702242126E0,7.803572388E0,9.817634324E0
8.312430958E0,1.700613556E0,5.702242126E0,7.549550629E0,9.612666978E0
8.322389958E0,1.713187408E0,5.654192047E0,7.304659882E0,9.394836603E0
8.332348958E0,1.585652618E0,5.634732513E0,7.246131592E0,9.315091399E0
8.342308958E0,1.602567444E0,5.706134033E0,7.218588867E0,9.340032829E0
8.352267958E0,1.838626556E0,5.735473022E0,7.268734589E0,9.439846446E0
8.362226958E0,1.946701813E0,5.710624695E0,7.495662689E0,9.622153683E0
8.372185958E0,1.865271149E0,5.683830414E0,7.674690399E0,9.730675072E0
8.382144958E0,1.913171539E0,5.684578857E0,7.721393280E0,9.777247890E0
8.392103958E0,1.913770294E0,5.673052826E0,7.711064758E0,9.762508121E0
8.402063958E0,1.852248230E0,5.713169403E0,7.704777832E0,9.769070047E0
8.412022958E0,1.888772278E0,5.769452362E0,7.933053131E0,9.989363006E0
8.421981958E0,1.788181458E0,5.845194855E0,8.205785980E0,1.023224410E1
8.431940958E0,1.622026978E0,5.901926880E0,8.297395477E0,1.031069756E1
8.441899958E0,1.764380951E0,5.911357269E0,8.124205627E0,1.020097554E1
8.451858958E0,1.868115234E0,5.815406799E0,7.810907135E0,9.915597866E0
8.461817958E0,2.026036835E0,5.692362671E0,7.585924988E0,9.698148068E0
8.471777958E0,2.024390259E0,5.471571808E0,7.534132690E0,9.528872408E0
8.481736958E0,1.867067413E0,5.435496826E0,7.566914520E0,9.502039877E0
8.491695958E0,1.864073639E0,5.531596985E0,7.704927521E0,9.666397666E0
8.501654958E0,1.690285034E0,5.753136292E0,7.759563904E0,9.806450564E0
8.511613958E0,1.653012543E0,5.976771240E0,7.759863281E0,9.933263465E0
8.521572958E0,1.691332855E0,5.994584198E0,7.738906860E0,9.934099150E0
8.531531958E0,1.737586670E0,5.995482330E0,7.583829346E0,9.822397027E0
8.541491958E0,1.730700989E0,5.936504974E0,7.453151093E0,9.684362572E0
8.551450958E0,1.708846436E0,5.898484039E0,7.394922180E0,9.612343323E0
8.561409958E0,1.886077881E0,5.937852173E0,7.283254395E0,9.584423445E0
8.571368958E0,2.053429871E0,5.816903687E0,7.322323151E0,9.574411682E0
8.581327958E0,1.908830566E0,5.666765900E0,7.424410858E0,9.532982035E0
8.591286958E0,1.799258423E0,5.727988586E0,7.411986694E0,9.538591661E0
8.601246958E0,1.735640717E0,5.821094971E0,7.334747314E0,9.523450715E0
8.611205958E0,1.663341064E0,5.827980652E0,6.090983734E0,8.592563344E0
8.621164958E0,1.438957672E0,5.803581390E0,6.773863678E0,9.035340905E0
8.631123958E0,1.243164825E0,5.960006104E0,7.904462585E0,9.977357381E0
8.641082958E0,1.342857513E0,6.051166534E0,7.992928619E0,1.011468193E1
8.651041958E0,1.683848419E0,6.094276886E0,8.620573425E0,1.069064275E1
8.661000958E0,1.610500946E0,6.126609650E0,8.775800629E0,1.082329598E1
8.670960958E0,1.524280243E0,5.967490540E0,8.705297241E0,1.066379734E1
8.680919958E0,1.554068298E0,5.805677032E0,8.648415527E0,1.053167153E1
8.690878958E0,1.561852112E0,5.805976410E0,8.139174500E0,1.011903679E1