"Time (s)","Acceleration x (m/s^2)","Acceleration y (m/s^2)","Acceleration z (m/s^2)","Absolute acceleration (m/s^2)"
-1.208332833E-4,-9.590556335E-1,7.981701965E0,5.213508453E0,9.581650399E0
9.838166705E-3,-9.595046997E-1,8.029302979E0,5.138065338E0,9.580713492E0
1.979716669E-2,-9.677375793E-1,8.010741577E0,5.063520355E0,9.526160561E0
2.975616668E-2,-9.741741943E-1,7.963889008E0,5.047503662E0,9.478915376E0
3.971516667E-2,-9.114546204E-1,7.963889008E0,5.040617981E0,9.469007724E0
4.967416672E-2,-8.583151245E-1,7.939938812E0,5.006788330E0,9.425882589E0
5.963316670E-2,-9.442364502E-1,7.836653595E0,5.072651367E0,9.382777517E0
6.959216669E-2,-1.164578247E0,7.754773865E0,5.205125885E0,9.412018682E0
7.955116668E-2,-1.273701324E0,7.697592773E0,5.217400360E0,9.385974435E0
8.951016667E-2,-1.085991669E0,7.675887909E0,5.283862152E0,9.381781938E0
9.946916671E-2,-6.732998657E-1,7.752079468E0,5.252128143E0,9.387913443E0
1.094281667E-1,-4.760101318E-1,7.689659271E0,5.185366974E0,9.286844244E0
1.193871667E-1,-4.713697815E-1,7.489076385E0,5.274282074E0,9.172050260E0
1.293461667E-1,-5.300477600E-1,7.204518127E0,5.277275848E0,8.946265839E0
1.393051667E-1,-8.289761353E-1,7.000791779E0,5.472619629E0,8.924564559E0
1.492641667E-1,-1.127605133E0,6.819967804E0,5.813011780E0,9.031863603E0
1.592231667E-1,-1.057850189E0,6.779102783E0,6.022725677E0,9.129540304E0
1.691821667E-1,-7.737409973E-1,6.812183990E0,6.225553894E0,9.260780050E0
1.791411667E-1,-6.203100586E-1,6.684050446E0,6.565946045E0,9.390045921E0
1.891001667E-1,-4.008663940E-1,6.513105927E0,6.836433563E0,9.450823591E0
1.990591667E-1,-1.297801208E-1,6.487060089E0,6.935677185E0,9.497494906E0
2.090181667E-1,-5.763015747E-2,6.397246857E0,6.952442322E0,9.447991470E0
2.189771667E-1,-2.290237427E-2,6.208639069E0,6.847660217E0,9.243277236E0
2.289361667E-1,5.179229736E-2,6.070626068E0,6.748117218E0,9.077018745E0
2.388951667E-1,2.203417969E-1,5.983956299E0,6.816824341E0,9.073333323E0
2.488541667E-1,2.125579834E-1,5.847290497E0,6.902745667E0,9.048971477E0
2.588131667E-1,5.658233643E-2,5.655539246E0,6.954388275E0,8.963918897E0
2.687711667E-1,7.304809570E-2,5.416037292E0,6.924450531E0,8.791291778E0
2.787301667E-1,-2.170486450E-2,5.212161255E0,6.998995514E0,8.726570589E0
2.886891667E-1,-2.040257263E-1,5.001848602E0,7.194339294E0,8.764623998E0
2.986481667E-1,-2.921923828E-1,4.882846069E0,7.354655914E0,8.832809618E0
3.086071667E-1,-3.558100891E-1,4.845423889E0,7.516319733E0,8.949848927E0
3.185661667E-1,-4.935237122E-1,4.767286377E0,7.948471069E0,9.281636569E0
3.285251667E-1,-7.738906860E-1,4.419260101E0,8.390352173E0,9.514556018E0
3.384841667E-1,-1.044527893E0,4.101321259E0,8.493038635E0,9.489129562E0
3.484431667E-1,-1.619931335E0,3.950135651E0,8.460107117E0,9.476347483E0
3.584021667E-1,-2.370021515E0,3.832779694E0,8.331075439E0,9.471748526E0
3.683611667E-1,-3.225193176E0,3.669020233E0,8.043673096E0,9.410858482E0
3.783201667E-1,-2.939437408E0,3.796255646E0,7.777526550E0,9.140118623E0
3.882791667E-1,-2.551593933E0,3.894750824E0,7.671846313E0,8.974237652E0
3.982381667E-1,-2.732717285E0,4.249363403E0,7.635621643E0,9.155738691E0
4.081971667E-1,-3.313509521E0,4.750970306E0,8.092920685E0,9.952207263E0
4.181561667E-1,-4.259093170E0,5.352120209E0,8.740773468E0,1.109892725E1
4.281151667E-1,-4.627776489E0,5.637875977E0,9.545949097E0,1.201362164E1
4.380741667E-1,-4.236041107E0,5.576503601E0,1.054078033E1,1.265501824E1
4.480331667E-1,-3.998036041E0,5.084925842E0,1.137739059E1,1.308761933E1
4.579921667E-1,-4.173321533E0,4.323908386E0,1.155566986E1,1.302483406E1
4.679511667E-1,-4.547992401E0,3.548071747E0,1.099194214E1,1.241353455E1
4.779101667E-1,-4.889282684E0,3.453917542E0,9.722282410E0,1.141741682E1
4.878691667E-1,-5.066514130E0,3.963757324E0,9.542506256E0,1.150827368E1
4.978281667E-1,-5.516029358E0,4.567601624E0,9.304800568E0,1.174175788E1
5.077871667E-1,-5.250331879E0,4.901706848E0,8.929381256E0,1.145978030E1
5.177461667E-1,-4.453987885E0,4.918771362E0,8.842112732E0,1.105510187E1
5.277051667E-1,-4.243375854E0,5.069507904E0,9.000932465E0,1.116794226E1
5.376641667E-1,-4.539310455E0,5.370980988E0,9.057814178E0,1.146720427E1
5.476231667E-1,-4.563859406E0,5.482199707E0,8.614436188E0,1.118444621E1
5.575821667E-1,-4.425696716E0,5.520220642E0,8.239016876E0,1.086006567E1
5.675411667E-1,-4.428540802E0,5.674549713E0,8.236472168E0,1.093855392E1
5.775001667E-1,-4.405788116E0,5.713768158E0,8.491092682E0,1.114256570E1
5.874591667E-1,-4.423601074E0,5.457201691E0,8.961714020E0,1.138690541E1
5.974181667E-1,-4.337380371E0,5.019960938E0,9.195378113E0,1.133877661E1
6.073761667E-1,-4.212839355E0,5.090314636E0,8.955876160E0,1.112955688E1
6.173351667E-1,-4.621190186E0,5.782624969E0,8.824449463E0,1.151803189E1
6.272941667E-1,-5.316643982E0,6.425987091E0,8.951235809E0,1.223456725E1
6.372531667E-1,-5.738766174E0,6.636599121E0,8.627309418E0,1.230481015E1
6.472121667E-1,-5.163213043E0,6.856491852E0,8.354127502E0,1.197754966E1
6.571711667E-1,-4.003873901E0,6.808741150E0,8.403225403E0,1.153274293E1
6.671301667E-1,-3.709286499E0,6.452332306E0,8.030949554E0,1.094931730E1
6.770891667E-1,-3.386557617E0,5.639522552E0,7.817942505E0,1.021729965E1
6.870483750E-1,-6.227050781E-1,5.773943024E0,8.544531555E0,1.033127287E1
6.970073750E-1,2.252815247E0,7.263196106E0,1.060918808E1,1.305312476E1
7.069663750E-1,2.199526062E0,8.473728790E0,1.156420212E1,1.450423266E1
7.169253750E-1,6.213578796E-1,9.126371613E0,1.208826233E1,1.515924901E1
7.268843750E-1,-5.016069031E-1,9.181307373E0,1.412193329E1,1.685161756E1
7.368433750E-1,-1.301842804E0,9.024583282E0,1.567884567E1,1.813736750E1
7.468023750E-1,-2.257006531E0,8.380772095E0,1.582973190E1,1.805302832E1
7.567613750E-1,-2.271676025E0,8.027656403E0,1.529654068E1,1.742377502E1
7.667203750E-1,-2.202370148E0,7.476652222E0,1.417447403E1,1.617610821E1
7.766793750E-1,-1.898502045E0,7.006479950E0,1.322918976E1,1.508994808E1
7.866383750E-1,-1.087189178E0,6.663842468E0,1.283670593E1,1.450413031E1
7.965973750E-1,1.930984497E-2,6.469097443E0,1.296304321E1,1.448758379E1
8.065563750E-1,5.221142578E-1,6.259982300E0,1.241667938E1,1.391524016E1
8.165153750E-1,2.918930054E-2,5.792205048E0,1.098131424E1,1.241530321E1
8.264743750E-1,-6.075865173E-1,5.179828491E0,1.006027954E1,1.133176990E1
8.364333750E-1,-7.943980408E-1,4.633464661E0,9.430239716E0,1.053705291E1
8.463923750E-1,-3.294648743E-1,4.074526978E0,8.830736389E0,9.730992877E0
8.563513750E-1,3.342549133E-1,3.960015106E0,8.405021667E0,9.297195019E0
8.663103750E-1,1.254092102E0,3.717818756E0,8.499325562E0,9.361274395E0
8.762693750E-1,1.405876465E0,3.103645935E0,8.015681305E0,8.709779188E0
8.862283750E-1,1.172511749E0,2.452649689E0,7.229216766E0,7.723460970E0
8.961873750E-1,9.854008484E-1,1.442101135E0,7.068750458E0,7.281339406E0
9.061463750E-1,6.646179199E-2,5.542973328E-1,6.562353516E0,6.586056967E0
9.161053750E-1,-1.002165985E0,-1.333726501E-1,6.705904999E0,6.781687605E0
9.260643750E-1,-1.613644409E0,-8.620573425E-1,7.080126801E0,7.312673017E0
9.360233750E-1,-2.170935516E0,-1.475631409E0,7.326963501E0,7.782984210E0
9.459823750E-1,-2.566113739E0,-2.415077820E0,7.532635803E0,8.316137489E0
9.559413750E-1,-2.580483856E0,-2.994522858E0,7.488777008E0,8.468048486E0
9.659003750E-1,-1.442849579E0,-3.754642181E0,7.014712830E0,8.086120757E0
9.758593750E-1,-9.800120544E-1,-4.496649170E0,5.688321075E0,7.316916977E0
9.858183750E-1,-5.556445312E-1,-4.528233490E0,5.827531586E0,7.400929926E0
9.957773750E-1,-8.631051636E-1,-4.558620300E0,6.112239532E0,7.673685012E0
1.005736375E0,-1.928140411E0,-4.501139832E0,6.524781647E0,8.157864964E0
1.015695375E0,-2.684517517E0,-4.506828003E0,6.736591187E0,8.538137605E0
1.025653375E0,-3.177592163E0,-4.681065674E0,6.625222778E0,8.712235342E0
1.035612375E0,-3.476071472E0,-5.143154755E0,6.379882965E0,8.901574038E0
1.045571375E0,-3.166515198E0,-5.309458923E0,6.091133423E0,8.678656516E0
1.055530375E0,-2.554737396E0,-5.616320801E0,5.576653290E0,8.316778488E0
1.065489375E0,-1.759141846E0,-5.979315948E0,4.676724701E0,7.792211058E0
1.075448375E0,-9.153465271E-1,-6.796167297E0,4.145629120E0,8.013238421E0
1.085407375E0,-6.192622375E-1,-7.670349426E0,4.011208649E0,8.677991753E0
1.095366375E0,-8.271798706E-1,-8.202193451E0,3.523971863E0,8.965410288E0
1.105325375E0,-1.176403656E0,-9.289083252E0,4.275109863E0,1.029308300E1
1.115284375E0,-1.052611084E0,-9.078321533E0,4.895868988E0,1.036790457E1
1.125243375E0,-5.685177612E-1,-8.183781738E0,4.785698090E0,9.497389230E0
1.135202375E0,-6.629713440E-1,-7.658224640E0,5.643115082E0,9.535863016E0
1.145161375E0,-6.770420837E-1,-7.303761749E0,7.058721313E0,1.017982653E1
1.155120375E0,-5.780978394E-1,-7.043153687E0,7.756570129E0,1.049307348E1
1.165079375E0,-2.133064270E-1,-6.288273468E0,8.317453766E0,1.042918597E1
1.175038375E0,8.770262146E-1,-6.497538300E0,8.599467316E0,1.081378828E1
1.184997375E0,2.199226685E0,-6.784641266E0,8.831185455E0,1.135155459E1
1.194956375E0,2.158211975E0,-7.156617737E0,8.843759308E0,1.157959995E1
1.204915375E0,1.276395721E0,-7.332352295E0,8.902586975E0,1.160381968E1
1.214874375E0,7.375163269E-1,-6.743027802E0,1.035292099E1,1.237721000E1
1.224833375E0,5.192701721E-1,-6.090684357E0,1.178514267E1,1.327613141E1
1.234792375E0,6.595285034E-1,-5.102888489E0,1.318203781E1,1.415063849E1
1.244751375E0,7.539820862E-1,-3.880530396E0,1.464299973E1,1.516721616E1
1.254710375E0,9.865983582E-1,-2.679727478E0,1.566911591E1,1.592719401E1
1.264669375E0,8.629554749E-1,-2.428549805E0,1.596445175E1,1.617115537E1
1.274628375E0,2.350112915E-1,-2.561473389E0,1.636322250E1,1.656416092E1
1.284587375E0,-2.215393066E-1,-1.855242004E0,1.687934921E1,1.698244483E1
1.294546375E0,6.975494385E-2,-2.481838989E-1,1.783690796E1,1.783877088E1
1.304505375E0,5.379812622E-1,1.564546509E0,1.889296188E1,1.896526399E1
1.314464375E0,3.736230469E-1,3.045716400E0,1.955174194E1,1.979107363E1
1.324423375E0,-1.978884888E-1,3.783232727E0,2.005469604E1,2.040938125E1
1.334382375E0,-9.638456726E-1,4.212689667E0,2.058504318E1,2.103377654E1
1.344341375E0,-1.230291595E0,4.819527740E0,2.016322037E1,2.076768934E1
1.354300375E0,-8.789721680E-1,5.777685242E0,1.989572662E1,2.073630094E1
1.364259375E0,-3.688330078E-1,7.010671234E0,2.014765274E1,2.133573200E1
1.374218375E0,-2.639012146E-1,8.287965088E0,2.039957886E1,2.202050923E1
1.384177375E0,-4.402345276E-1,9.061257019E0,2.090432922E1,2.278796098E1
1.394136375E0,-8.625064087E-1,9.589957581E0,2.127406036E1,2.335159198E1
1.404095375E0,-9.924362183E-1,1.023676254E1,2.124576920E1,2.360421458E1
1.414054375E0,-8.617579651E-1,1.088401657E1,2.093172226E1,2.360807998E1
1.424013375E0,-4.323010254E-1,1.143861328E1,2.100207596E1,2.391894547E1
1.433972375E0,1.480421448E-1,1.174248138E1,2.097902390E1,2.404219685E1
1.443931375E0,2.583627319E-1,1.115824631E1,2.069072342E1,2.350913115E1
1.453890375E0,9.145980835E-2,9.981094208E0,1.991698242E1,2.227816858E1
1.463849375E0,2.890489197E-1,8.910520477E0,1.937421112E1,2.132700122E1
1.473808375E0,9.032217407E-1,7.884853363E0,1.893442566E1,2.053044561E1
1.483766375E0,9.162446594E-1,6.791377258E0,1.804377777E1,1.930130114E1
1.493725375E0,8.449928284E-1,5.607938232E0,1.718875580E1,1.810017431E1
1.503684375E0,1.206491089E0,4.682712250E0,1.629241974E1,1.699489205E1
1.513643375E0,2.286944275E0,3.993844757E0,1.590457626E1,1.655706665E1
1.523602375E0,3.625610504E0,3.569626923E0,1.631771713E1,1.709254751E1
1.533561375E0,3.316203918E0,2.832110596E0,1.590337875E1,1.649046739E1
1.543520375E0,1.923649750E0,1.888023834E0,1.545580948E1,1.568907610E1
1.553479375E0,8.155041504E-1,1.088835754E0,1.524609558E1,1.530666655E1
1.563438375E0,4.245172119E-1,3.038681030E-2,1.444570999E1,1.445197825E1
1.573397375E0,7.297325134E-1,-1.367556152E0,1.367571121E1,1.376327710E1
1.583356375E0,1.464105377E0,-2.613115997E0,1.265663040E1,1.300623977E1
1.593315375E0,2.099234619E0,-3.521277466E0,1.152408554E1,1.223154645E1
1.603274375E0,2.819087677E0,-4.326004028E0,1.150866760E1,1.261392073E1
1.613233375E0,4.144880676E0,-4.512366486E0,1.287008652E1,1.425414375E1
1.623192375E0,3.427272949E0,-4.673880615E0,1.327289886E1,1.448313516E1
1.633151375E0,5.117857361E-1,-5.611830139E0,1.221175552E1,1.344922061E1
1.643110375E0,-1.397643585E0,-6.769373016E0,1.112097382E1,1.309403976E1
1.653069375E0,-1.567689972E0,-7.180567932E0,1.028466293E1,1.264090580E1
1.663028375E0,-6.345304871E-1,-7.076833649E0,9.764494629E0,1.207599101E1
1.672987375E0,3.315605164E-1,-7.107968903E0,9.603429565E0,1.195236436E1
1.682946375E0,8.966354370E-1,-6.956034851E0,9.739496613E0,1.200200692E1
1.692914917E0,1.336570587E0,-6.528523865E0,1.015608032E1,1.214718125E1
1.702873917E0,6.174659729E-1,-6.206992493E0,1.045815216E1,1.217706724E1
1.712832917E0,-1.177750854E0,-6.344406738E0,1.015188904E1,1.202910824E1
1.722791917E0,-2.253264313E0,-6.327641602E0,9.586514740E0,1.170544801E1
1.732750917E0,-2.341580658E0,-6.130202179E0,8.983269196E0,1.112481479E1
1.742709917E0,-1.868863678E0,-6.079457703E0,8.353079681E0,1.049887601E1
1.752668917E0,-1.471739502E0,-6.043233032E0,7.778424683E0,9.959446430E0
1.762627917E0,-1.273252258E0,-6.036197662E0,7.338339844E0,9.586870459E0
1.772586917E0,-1.024319916E0,-5.902076569E0,6.773564301E0,9.042395283E0
1.782545917E0,-5.650749207E-1,-5.743406525E0,6.136040039E0,8.423598728E0
1.792504917E0,-4.342469788E-1,-5.615722046E0,5.786666565E0,8.075296556E0
1.802463917E0,-6.036946106E-1,-5.610782318E0,5.410947876E0,7.818163616E0
1.812422917E0,-5.522016907E-1,-5.746100922E0,6.021827545E0,8.341762973E0
1.822381917E0,-6.131250000E-1,-5.386698303E0,5.620512085E0,7.809135482E0
1.832340917E0,-1.123413849E0,-4.684358826E0,4.578379211E0,6.645813155E0
1.842299917E0,-1.333876190E0,-4.453389130E0,5.230273590E0,6.997689780E0
1.852258917E0,-1.104403381E0,-4.745880890E0,5.764662323E0,7.548140430E0
1.862217917E0,-7.517367554E-1,-4.994663544E0,5.794151001E0,7.686608998E0
1.872176917E0,-4.662803650E-1,-5.364244995E0,5.245691528E0,7.517301468E0
1.882135917E0,-1.243913269E-1,-5.738915863E0,4.592899017E0,7.351554249E0
1.892094917E0,4.866380310E-1,-6.016289062E0,4.715793457E0,7.659716613E0
1.902053917E0,9.054670715E-1,-5.995931396E0,5.490731964E0,8.180415725E0
1.912012917E0,9.192384338E-1,-5.819747772E0,5.721402283E0,8.212728384E0
1.921971917E0,5.662724304E-1,-5.623505859E0,6.466253357E0,8.588184621E0
1.931929917E0,5.671705627E-1,-5.681734772E0,7.780370636E0,9.650800987E0
1.941888917E0,4.215234375E-1,-5.760770416E0,8.110134888E0,9.956829098E0
1.951847917E0,3.692820740E-1,-5.930517426E0,8.240214386E0,1.015916036E1
1.961806917E0,7.735913086E-1,-5.736520844E0,9.365723877E0,1.101012709E1
1.971765917E0,1.307830353E0,-4.972659302E0,1.094074860E1,1.208874438E1
1.981724917E0,1.751807098E0,-4.226161652E0,1.243539047E1,1.325021534E1
1.991683917E0,1.371298370E0,-3.462150421E0,1.313548462E1,1.365312788E1
2.001642917E0,3.538641357E-1,-2.400108948E0,1.361927856E1,1.383367238E1
2.011601917E0,6.855743408E-2,-1.386416931E0,1.490360779E1,1.496811201E1
2.021560917E0,2.621049500E-1,-2.639012146E-1,1.586041809E1,1.586477875E1
2.031519917E0,8.551716614E-1,1.201102295E0,1.669238800E1,1.675737994E1
2.041478917E0,1.157093811E0,2.521207123E0,1.758902344E1,1.780643414E1
2.051437917E0,6.933581543E-1,3.890409851E0,1.855256973E1,1.896876058E1
2.061396917E0,-1.773811340E-1,5.243146820E0,1.920521255E1,1.990884833E1
2.071355917E0,-6.168672180E-1,6.683152313E0,1.939307190E1,2.052160539E1
2.081314917E0,-3.944297791E-1,8.270900574E0,1.982402573E1,2.148383967E1
2.091273917E0,-5.867797852E-2,9.846524048E0,2.054657318E1,2.278418637E1
2.101232917E0,5.658233643E-2,1.150507507E1,2.078876953E1,2.376011138E1
2.111191917E0,6.692582703E-1,1.322918976E1,2.114772308E1,2.495366827E1
2.121150917E0,1.299747162E0,1.473460922E1,2.158316757E1,2.616545765E1
2.131109917E0,1.581161957E0,1.583556976E1,2.179482742E1,2.698666051E1
2.141068917E0,1.285526733E0,1.623643616E1,2.132540359E1,2.683369666E1
2.151027917E0,8.701405334E-1,1.613943787E1,2.067695206E1,2.624452220E1
2.160986917E0,8.864566040E-1,1.573782303E1,2.021306671E1,2.563265388E1
2.170945917E0,1.213376770E0,1.536539749E1,1.993793884E1,2.520097475E1
2.180904917E0,2.074985046E0,1.489253082E1,2.011966095E1,2.511759929E1
2.190863917E0,2.421215057E0,1.390578278E1,1.986863297E1,2.437202603E1
2.200822917E0,1.735790405E0,1.230920288E1,1.932241882E1,2.297575490E1
2.210781917E0,1.081201630E0,1.033690430E1,1.901810165E1,2.167276581E1
2.220740917E0,4.188290405E-1,8.348888397E0,1.840407852E1,2.021359596E1
2.230699917E0,-7.649093628E-2,6.621480560E0,1.790336975E1,1.908875334E1
2.240658917E0,7.484436035E-2,5.485193481E0,1.783840485E1,1.866284107E1
2.250617917E0,3.309617615E-1,4.875361633E0,1.748528915E1,1.815527536E1
2.260576917E0,1.477427673E-1,4.299808502E0,1.726928833E1,1.779714866E1
2.270535917E0,-4.203259277E-1,3.947890320E0,1.725461884E1,1.770549019E1
2.280494917E0,-1.122815094E0,3.594475250E0,1.734428238E1,1.774838295E1
2.290453917E0,-1.498683472E0,3.435356140E0,1.728380814E1,1.768552367E1
2.300412917E0,-1.277742920E0,3.294349365E0,1.762285309E1,1.797360052E1
2.310371917E0,-1.221160583E0,2.894530792E0,1.735655685E1,1.763858292E1
2.320330917E0,-1.529070282E0,2.413730621E0,1.658266617E1,1.682703089E1
2.330289917E0,-1.567240906E0,2.041454773E0,1.586431000E1,1.607171781E1
2.340248917E0,-1.243613892E0,1.739532623E0,1.569186859E1,1.583689645E1
2.350207917E0,-9.135502625E-1,1.633103943E0,1.561148575E1,1.572323408E1
2.360166917E0,-1.602417755E0,1.426533508E0,1.519056107E1,1.534131305E1
2.370125917E0,-2.162253571E0,9.192384338E-1,1.423405014E1,1.442666015E1
2.380084917E0,-1.905986481E0,3.896397400E-1,1.233225494E1,1.248475533E1
2.390043917E0,-1.221010895E0,1.041833496E-1,1.012629227E1,1.020017239E1
2.400002917E0,-5.551954651E-1,5.313949585E-2,8.524173889E0,8.542400500E0
2.409961917E0,5.761518860E-1,1.640588379E-1,7.521409149E0,7.545227756E0
2.419919917E0,1.656006317E0,3.900888062E-1,6.814279633E0,7.023455924E0
2.429878917E0,2.311044159E0,5.345384216E-1,7.005881195E0,7.396555127E0
2.439837917E0,2.235601044E0,5.792953491E-1,7.171736298E0,7.534407518E0
2.449796917E0,9.686357117E-1,4.150868225E-1,6.740034027E0,6.821921349E0
2.459755917E0,-8.506809998E-1,-1.142124939E-1,6.165678406E0,6.225133963E0
2.469714917E0,-2.211800537E0,-6.807843018E-1,5.299729156E0,5.782962737E0
2.479673917E0,-2.698139191E0,-1.005908203E0,4.174069977E0,5.070963082E0
2.489632917E0,-2.678230591E0,-1.323397980E0,3.670217743E0,4.732314401E0
2.499591917E0,-2.561174011E0,-1.504221954E0,3.386258240E0,4.504335786E0
2.509550917E0,-2.491718445E0,-1.440604248E0,3.014730835E0,4.168045515E0
2.519509917E0,-2.155816956E0,-1.293160858E0,2.971470795E0,3.892229494E0
2.529468917E0,-2.150278473E0,-1.130149841E0,2.970872040E0,3.837579556E0
2.539427917E0,-2.653681641E0,-1.292412415E0,2.625839539E0,3.950618861E0
2.549386917E0,-3.054697723E0,-1.492396545E0,1.918560333E0,3.903754524E0
2.559345917E0,-3.278931427E0,-1.773062897E0,1.071471863E0,3.878555825E0
2.569304917E0,-3.096460876E0,-1.931732941E0,9.066645813E-1,3.760545542E0
2.579263917E0,-2.679278412E0,-1.794318695E0,1.201401672E0,3.441144921E0
2.589222917E0,-2.494562531E0,-1.538051605E0,1.290765839E0,3.202268166E0
2.599181917E0,-2.367776184E0,-1.370998993E0,1.416055298E0,3.080781541E0
2.609140917E0,-2.191592560E0,-1.215472412E0,1.715732117E0,3.037134806E0
2.619099917E0,-2.032772827E0,-1.122366028E0,2.015259247E0,3.074596022E0
2.629058917E0,-1.914818115E0,-1.122216339E0,2.151026917E0,3.090762806E0
2.639017917E0,-2.021546173E0,-1.228645020E0,2.291285248E0,3.293357800E0
2.648976917E0,-2.215393066E0,-1.411714325E0,2.417772217E0,3.570227761E0
2.658935917E0,-2.176473999E0,-1.591041412E0,2.752925262E0,3.853186908E0
2.668894917E0,-2.051633606E0,-1.800904999E0,2.932851105E0,4.006753657E0
2.678853917E0,-1.713187408E0,-1.951641541E0,3.043770447E0,4.001056652E0
2.688803000E0,-1.169368286E0,-1.992207184E0,3.399281158E0,4.109917766E0
2.698762000E0,-5.270539856E-1,-1.918859711E0,3.852388916E0,4.335978419E0
2.708721000E0,8.352630615E-2,-1.872007141E0,4.378993835E0,4.763084546E0
2.718680000E0,4.351451111E-1,-1.733245697E0,5.044659576E0,5.351829795E0
2.728639000E0,5.565426636E-1,-1.501826935E0,5.795647888E0,6.012882697E0
2.738598000E0,3.939807129E-1,-1.034798126E0,7.225025482E0,7.309378987E0
2.748557000E0,5.541476440E-1,-7.244934082E-2,8.972940674E0,8.990327739E0
2.758516000E0,1.135987701E0,4.661306763E-1,9.469907227E0,9.549182622E0
2.768475000E0,1.944606171E0,7.680528259E-1,1.025143204E1,1.046246898E1
2.778434000E0,2.415826263E0,1.003513184E0,1.104897354E1,1.135442960E1
2.788393000E0,2.801424408E0,1.604962463E0,1.214709000E1,1.256883760E1
2.798352000E0,2.971021729E0,2.540516968E0,1.357437195E1,1.412603166E1
2.808311000E0,2.816093903E0,3.765270081E0,1.486079681E1,1.558688313E1
2.818270000E0,2.391726379E0,5.682782593E0,1.611488892E1,1.725410148E1
2.828229000E0,1.953288116E0,7.794291687E0,1.764695297E1,1.939023637E1
2.838188000E0,2.017354889E0,9.566606140E0,1.938334213E1,2.170952846E1
2.848147000E0,1.872156830E0,1.107202560E1,2.066467758E1,2.351858035E1
2.858106000E0,1.179098053E0,1.247535736E1,2.181533478E1,2.515817253E1
2.868065000E0,4.460723877E-1,1.399095566E1,2.209600113E1,2.615681721E1
2.878024000E0,-8.053253174E-2,1.521825348E1,2.172192902E1,2.652251731E1
2.887983000E0,-1.817221069E-1,1.637759262E1,2.147524200E1,2.700823175E1
2.897942000E0,1.725910950E-1,1.779020508E1,2.156939621E1,2.795997205E1
2.907901000E0,5.909710693E-1,1.905103317E1,2.155607391E1,2.877421475E1
2.917860000E0,8.315208435E-1,1.978136444E1,2.132375702E1,2.909804838E1
2.927819000E0,5.399272156E-1,2.011876282E1,2.082439545E1,2.896051768E1
2.937778000E0,5.519023132E-1,2.045092209E1,2.012699570E1,2.869914226E1
2.947737000E0,1.024170227E0,2.087888214E1,1.971475296E1,2.873409348E1
2.957696000E0,1.736838226E0,2.107901596E1,1.940878922E1,2.870614254E1
2.967654000E0,2.120939484E0,2.048340454E1,1.905043442E1,2.805329388E1
2.977613000E0,2.179467773E0,1.927466812E1,1.853715179E1,2.683074557E1
2.987572000E0,2.127825165E0,1.778885788E1,1.792896652E1,2.534598479E1
2.997531000E0,2.020947418E0,1.625799133E1,1.760938110E1,2.405196070E1
3.007490000E0,1.908082123E0,1.483490067E1,1.735655685E1,2.291211734E1
3.017449000E0,1.464853821E0,1.332379303E1,1.710268478E1,2.172949802E1
3.027408000E0,8.175997925E-1,1.194560898E1,1.702170319E1,2.081116101E1
3.037367000E0,2.501298523E-1,1.108489883E1,1.670945251E1,2.005351217E1
3.047326000E0,8.831634521E-2,1.079165863E1,1.663296158E1,1.982733231E1
3.057285000E0,1.097218323E-1,1.046009811E1,1.650348083E1,1.953946189E1
3.067244000E0,4.719685364E-1,9.946665802E0,1.606938354E1,1.890460268E1
3.077203000E0,7.536827087E-1,9.057365112E0,1.582045120E1,1.824528916E1
3.087162000E0,7.473957825E-1,8.051157532E0,1.549128571E1,1.747454351E1
3.097121000E0,2.071691895E-1,7.460785217E0,1.469569016E1,1.648240105E1
3.107080000E0,-2.730322266E-1,7.279512177E0,1.395592850E1,1.574273751E1
3.117039000E0,-3.314108276E-1,7.289241943E0,1.334415070E1,1.520885397E1
3.126998000E0,-1.892065430E-1,7.469616852E0,1.274838959E1,1.477675242E1
3.136957000E0,-5.254074097E-2,7.463479614E0,1.249766098E1,1.455671043E1
3.146916000E0,-8.232879639E-3,7.140601044E0,1.240560242E1,1.431388216E1
3.156875000E0,8.098159790E-2,6.747668152E0,1.180939224E1,1.360144583E1
3.166834000E0,4.306544495E-1,6.454727325E0,1.150223099E1,1.319660130E1
3.176793000E0,5.010081482E-1,5.654491425E0,1.082144669E1,1.221998326E1
3.186752000E0,5.628295898E-2,4.660708008E0,9.257199554E0,1.036441559E1
3.196711000E0,-3.788621521E-1,4.079167328E0,7.796836395E0,8.807599014E0
3.206670000E0,-4.951702881E-1,3.787573700E0,7.239395599E0,8.185337915E0
3.216629000E0,-8.065228271E-1,3.525468750E0,6.545438690E0,7.478113173E0
3.226588000E0,-6.990463257E-1,3.205583954E0,5.639223175E0,6.524206639E0
3.236547000E0,-3.626957703E-1,2.978057098E0,5.113815765E0,5.928868694E0
3.246506000E0,-9.370513916E-2,2.765349426E0,4.964127045E0,5.683176525E0
3.256465000E0,-3.397933960E-1,2.398911438E0,4.908742218E0,5.474119637E0
3.266424000E0,-1.021924896E0,1.969155121E0,4.384382629E0,4.913727040E0
3.276383000E0,-1.812431030E0,1.422342224E0,3.347189484E0,4.063451868E0
3.286342000E0,-2.042502594E0,9.054670715E-1,2.185754700E0,3.125573719E0
3.296301000E0,-1.972298584E0,4.625381470E-1,1.124611359E0,2.317035595E0
3.306260000E0,-1.956281891E0,1.570234680E-1,4.941224670E-1,2.023821192E0
3.316219000E0,-1.746717682E0,-3.861968994E-2,6.286926270E-2,1.748275346E0
3.326178000E0,-1.588047638E0,-2.195933533E-1,-4.478686523E-1,1.664542841E0
3.336137000E0,-1.360071716E0,-2.239343262E-1,-1.154100037E0,1.797745408E0
3.346096000E0,-1.316961365E0,-2.320175171E-1,-1.076261902E0,1.716554411E0
3.356055000E0,-1.370849304E0,-5.403762817E-2,-7.577243042E-1,1.567256840E0
3.366014000E0,-1.789528656E0,-5.807922363E-2,-1.082249451E0,2.092140024E0
3.375973000E0,-2.364333344E0,-3.135978699E-1,-1.605561218E0,2.875107408E0
3.385932000E0,-2.654130707E0,-5.587879944E-1,-2.184706879E0,3.482757238E0
3.395891000E0,-2.733016663E0,-8.125103760E-1,-2.466271362E0,3.769886951E0
3.405850000E0,-2.490520935E0,-1.000220032E0,-2.379751282E0,3.586969585E0
3.415809000E0,-2.072440338E0,-9.262738037E-1,-2.190245361E0,3.154388508E0
3.425768000E0,-1.759740601E0,-8.767268372E-1,-2.010469208E0,2.811996331E0
3.435727000E0,-1.682650909E0,-7.125183105E-1,-1.913620605E0,2.645928995E0
3.445686000E0,-1.756746826E0,-5.828878784E-1,-1.809886322E0,2.588746065E0
3.455645000E0,-1.778900757E0,-4.481680298E-1,-1.684896240E0,2.490826735E0
3.465604000E0,-1.731449432E0,-4.077520752E-1,-1.664987640E0,2.436465213E0
3.475563000E0,-1.460213470E0,-3.035687256E-1,-1.156045990E0,1.887013429E0
3.485522000E0,-1.211131439E0,-1.248403931E-1,-3.981719971E-1,1.281001728E0
3.495481000E0,-1.163081360E0,9.535171509E-2,3.251239014E-1,1.211427154E0
3.505440000E0,-1.150956573E0,5.530998230E-1,1.205592957E0,1.756153417E0
3.515399000E0,-1.025667114E0,9.574090576E-1,2.194736023E0,2.604897569E0
3.525357000E0,-1.131347351E0,1.305135956E0,2.922971649E0,3.395156838E0
3.535317000E0,-1.368753662E0,1.519340515E0,3.344644775E0,3.920271784E0
3.545275000E0,-1.822310486E0,1.393302612E0,4.002526703E0,4.613277326E0
3.555234000E0,-2.132465515E0,1.300345917E0,4.393813019E0,5.054097498E0
3.565193000E0,-2.167043610E0,1.351689148E0,4.048780518E0,4.787041387E0
3.575152000E0,-1.709594879E0,1.911674652E0,4.620741119E0,5.284738699E0
3.585111000E0,-1.035845947E0,2.885399780E0,6.272705841E0,6.981786826E0
3.595070000E0,-4.611909485E-1,4.157155151E0,7.876171417E0,8.917887207E0
3.605029000E0,-7.155120850E-2,5.801635437E0,9.389973450E0,1.103792076E1
3.614988000E0,2.610571289E-1,7.138655090E0,1.049542465E1,1.269576646E1
3.624947000E0,1.692979431E-1,7.677833862E0,1.071352112E1,1.318170434E1
3.634906000E0,3.652404785E-1,8.103548584E0,1.074286011E1,1.346142428E1
3.644865000E0,3.405418396E-1,8.087382202E0,1.087293961E1,1.355516637E1
3.654824000E0,8.652008057E-2,8.605305176E0,1.083072739E1,1.383341674E1
3.664783000E0,1.639091492E-1,9.954000549E0,1.166898422E1,1.533865007E1
3.674742000E0,4.676275635E-1,1.151435577E1,1.284089722E1,1.725362877E1
3.684701000E0,7.090754700E-1,1.298295181E1,1.379695908E1,1.895826747E1
3.694660250E0,1.004261627E0,1.428404617E1,1.481409393E1,2.060339524E1
3.704619250E0,1.097667389E0,1.502365814E1,1.501198242E1,2.126675325E1
3.714578250E0,9.997709656E-1,1.559322372E1,1.488549545E1,2.158068912E1
3.724537250E0,6.463558960E-1,1.621428223E1,1.499431915E1,2.209412435E1
3.734496250E0,2.868035889E-1,1.687366104E1,1.533007095E1,2.279942474E1
3.744455250E0,-2.516267395E-1,1.744247818E1,1.554457489E1,2.336529841E1
3.754414250E0,-8.122109985E-1,1.800171524E1,1.545670761E1,2.374091928E1
3.764373250E0,-1.162332916E0,1.827399902E1,1.546254547E1,2.396623397E1
3.774332250E0,-1.199755096E0,1.861064896E1,1.534593796E1,2.415146949E1
3.784291250E0,-1.142574005E0,1.897484161E1,1.541239975E1,2.447227320E1
3.794250250E0,-7.048841858E-1,1.925730423E1,1.566507431E1,2.483415352E1
3.804209250E0,-4.390370178E-1,1.908486282E1,1.554667053E1,2.461957975E1
3.814168250E0,-4.129911804E-1,1.843162125E1,1.511122604E1,2.383787692E1
3.824127250E0,-3.706292725E-1,1.768362671E1,1.473535767E1,2.302126811E1
3.834086250E0,-1.773811340E-1,1.703068451E1,1.440664124E1,2.230755456E1
3.844045250E0,1.628613281E-1,1.652892792E1,1.419168823E1,2.178614231E1
3.854004250E0,3.676354980E-1,1.591445572E1,1.414947601E1,2.129818603E1
3.863963250E0,2.978805542E-1,1.503668106E1,1.367316650E1,2.032599302E1
3.873922250E0,1.998344421E-1,1.416369644E1,1.300884796E1,1.923227381E1
3.883881250E0,9.086105347E-2,1.352437592E1,1.270602768E1,1.855694315E1
3.893840250E0,1.919009399E-1,1.303085220E1,1.271530838E1,1.820766329E1
3.903799250E0,7.978408813E-2,1.249721191E1,1.238479568E1,1.759459676E1
3.913758250E0,2.296224976E-1,1.202404587E1,1.218211716E1,1.711824711E1
3.923717250E0,3.177891541E-1,1.161569504E1,1.205862396E1,1.674621668E1
3.933676250E0,2.469863892E-1,1.113848740E1,1.183513870E1,1.625415060E1
3.943635250E0,9.580078125E-2,1.087877747E1,1.209275299E1,1.626627345E1
3.953594250E0,-2.704875183E-1,1.071935898E1,1.229573090E1,1.631449719E1
3.963553250E0,-8.428971863E-1,1.041025177E1,1.209874054E1,1.598322058E1
3.973512250E0,-1.314865723E0,9.902058563E0,1.179532150E1,1.545668933E1
3.983471250E0,-1.270557861E0,9.482032013E0,1.187974594E1,1.525292143E1
3.993430250E0,-1.009351044E0,9.056916046E0,1.220831268E1,1.523448116E1
4.003389250E0,-1.345102844E0,8.399483185E0,1.179666870E1,1.454379634E1
4.013348250E0,-1.829196167E0,7.558382263E0,1.084210373E1,1.334265020E1
4.023307250E0,-1.714235229E0,6.865473175E0,9.761800232E0,1.205678515E1
4.033266250E0,-1.157842255E0,6.763385468E0,8.871002655E0,1.121510900E1
4.043225250E0,-2.017803955E-1,7.007677460E0,8.955726471E0,1.137335902E1
4.053184250E0,1.692979431E-1,7.016958160E0,8.935518494E0,1.136265173E1
4.063143250E0,-1.246907043E-1,6.608757019E0,8.107739868E0,1.046072000E1
4.073102250E0,-7.364685059E-1,5.893993378E0,7.085216217E0,9.245638574E0
4.083061250E0,-1.004561005E0,5.331313477E0,6.156547394E0,8.205798073E0
4.093020250E0,-7.144642639E-1,5.107379150E0,5.564827881E0,7.587034356E0
4.102979250E0,-2.670446777E-1,5.058580627E0,5.335355072E0,7.357075816E0
4.112938250E0,-1.049317932E-1,4.868625641E0,4.922962646E0,6.924600171E0
4.122897250E0,-2.338137817E-1,4.617298279E0,4.129762115E0,6.199116664E0
4.132856250E0,-6.433621216E-1,4.214934998E0,3.232527924E0,5.350591428E0
4.142815250E0,-8.159532166E-1,3.740421753E0,2.363435211E0,4.499151091E0
4.152774250E0,-4.022135925E-1,3.566034393E0,1.858984222E0,4.041559032E0
4.162733250E0,9.864486694E-2,3.581452332E0,1.644629974E0,3.942250546E0
4.172692250E0,1.643582153E-1,3.498824158E0,1.367406464E0,3.760130921E0
4.182651250E0,-2.492317200E-1,3.194806366E0,7.689509583E-1,3.295480199E0
4.192610250E0,-8.044271851E-1,2.754422150E0,-1.347198486E-2,2.869516679E0
4.202569250E0,-1.094523926E0,2.303410034E0,-6.095324707E-1,2.622062212E0
4.212528250E0,-1.158441010E0,1.901944885E0,-1.145867157E0,2.504474288E0
4.222487250E0,-1.099463654E0,1.582060089E0,-1.698368225E0,2.568304709E0
4.232446250E0,-9.062155151E-1,1.580413513E0,-2.577639771E0,3.156447405E0
4.242405250E0,-8.390052795E-1,1.502126312E0,-3.164269867E0,3.601793596E0
4.252364250E0,-7.162605286E-1,1.611698456E0,-3.347788239E0,3.783951261E0
4.262323250E0,-3.872447205E-1,1.923350372E0,-2.984493713E0,3.571615580E0
4.272282250E0,-1.782792664E-1,2.203417969E0,-2.559826813E0,3.382240020E0
4.282241250E0,-2.197430420E-1,2.322270813E0,-2.537972260E0,3.447104861E0
4.292200250E0,-3.456312561E-1,2.174078979E0,-2.567161560E0,3.381774512E0
4.302159250E0,-4.022135925E-1,1.949845276E0,-2.688409424E0,3.345327727E0
4.312118250E0,-7.860154724E-1,1.571881256E0,-3.081342316E0,3.547294951E0
4.322077250E0,-1.203048248E0,1.278940430E0,-3.557651825E0,3.967354310E0
4.332036250E0,-1.446142731E0,1.135239258E0,-3.663182373E0,4.098658569E0
4.341995250E0,-1.575473785E0,1.117126923E0,-3.588188324E0,4.074946093E0
4.351954250E0,-1.390608215E0,1.408121796E0,-3.248394928E0,3.803770210E0
4.361913250E0,-1.183738403E0,1.813778229E0,-2.762355652E0,3.510218913E0
4.371872250E0,-9.701325989E-1,2.163301392E0,-2.443368988E0,3.404567841E0
4.381831250E0,-8.116122437E-1,2.441123657E0,-1.961221619E0,3.234839931E0
4.391790250E0,-7.271878052E-1,2.509980469E0,-1.523681488E0,3.024964353E0
4.401748250E0,-7.807763672E-1,2.487078094E0,-1.207987976E0,2.873047882E0
4.411707250E0,-9.207353210E-1,2.510279846E0,-8.454418945E-1,2.804287866E0
4.421666250E0,-1.107696533E0,2.461481323E0,-7.535330200E-1,2.802444277E0
4.431625250E0,-1.281485138E0,2.674338684E0,-4.806504822E-1,3.004216444E0
4.441584250E0,-1.094074860E0,3.041525116E0,-3.592529297E-2,3.232516892E0
4.451543250E0,-1.002016296E0,3.286266174E0,2.872526550E-1,3.447621806E0
4.461502250E0,-8.616082764E-1,3.604205017E0,1.079854431E0,3.859889664E0
4.471461250E0,-2.757266235E-1,3.868405609E0,2.145039368E0,4.431904897E0
4.481420250E0,1.384620667E-1,3.812272339E0,2.591710510E0,4.611892833E0
4.491379250E0,2.100132751E-1,3.489393768E0,2.156864777E0,4.107558899E0
4.501338250E0,1.871109009E-2,3.214565277E0,2.248474274E0,3.922934690E0
4.511297250E0,-5.688171387E-1,3.203039246E0,3.234922943E0,4.587781577E0
4.521256250E0,-1.310674438E0,3.543281708E0,4.208049316E0,5.655120847E0
4.531215250E0,-1.052461395E0,4.178860016E0,4.754263458E0,6.416663233E0
4.541174250E0,-1.763333130E-1,4.462071075E0,5.634582825E0,7.189554599E0
4.551133250E0,3.641926575E-1,4.588707733E0,6.612349548E0,8.056800947E0
4.561092250E0,-1.490899658E-1,5.245691528E0,6.436914368E0,8.305021012E0
4.571051250E0,-1.077758789E0,5.907764740E0,6.576723633E0,8.905983493E0
4.581010250E0,-1.332379303E0,6.731352081E0,8.003257141E0,1.054222274E1
4.590969250E0,-1.050066376E0,7.889344025E0,8.855584717E0,1.190654313E1
4.600928250E0,-1.410067749E-1,8.859925690E0,9.937235413E0,1.331415840E1
4.610887250E0,5.504054260E-1,9.664951630E0,1.115106125E1,1.476686843E1
4.620846250E0,6.158193970E-1,1.025562332E1,1.167063080E1,1.554865481E1
4.630805250E0,-7.484436035E-3,1.081920135E1,1.154818542E1,1.582453034E1
4.640764250E0,-5.945635986E-1,1.207883194E1,1.147109573E1,1.666846496E1
4.650723250E0,-1.883084106E-1,1.402134247E1,1.226863724E1,1.863204134E1
4.660682250E0,7.936495972E-1,1.627430740E1,1.345447128E1,2.113068287E1
4.670641250E0,1.744322662E0,1.845048203E1,1.463042587E1,2.361169858E1
4.680600250E0,2.428699493E0,2.046140030E1,1.564935699E1,2.587411559E1
4.690558625E0,2.418221283E0,2.199496124E1,1.616757935E1,2.740468457E1
4.700517625E0,1.679956512E0,2.289474014E1,1.584095856E1,2.789134898E1
4.710476625E0,1.068328400E0,2.354753265E1,1.581117050E1,2.838345878E1
4.720435625E0,7.735913086E-1,2.438983109E1,1.627685211E1,2.933254538E1
4.730394625E0,7.402107239E-1,2.512225800E1,1.673759399E1,3.019640395E1
4.740353625E0,4.173321533E-1,2.541235474E1,1.690554474E1,3.052473394E1
4.750312625E0,-4.625381470E-2,2.512839523E1,1.691437637E1,3.029083219E1
4.760271625E0,-5.736071777E-1,2.426064972E1,1.668086197E1,2.944756876E1
4.770230625E0,-8.122109985E-1,2.323692856E1,1.643447433E1,2.847290786E1
4.780189625E0,-6.209088135E-1,2.226919098E1,1.652728134E1,2.773902347E1
4.790148625E0,-6.162684631E-1,2.116673355E1,1.634750519E1,2.675166017E1
4.800107625E0,-6.242019653E-1,1.973481125E1,1.597073868E1,2.539521406E1
4.810066625E0,-7.033872986E-1,1.802416855E1,1.531435364E1,2.366209697E1
4.820025625E0,-8.860075378E-1,1.653401733E1,1.451351898E1,2.201819638E1
4.829984625E0,-8.077203369E-1,1.524444901E1,1.391805725E1,2.065812081E1
4.839943625E0,-3.586541748E-1,1.432086960E1,1.349788101E1,1.968270131E1
4.849902625E0,1.348695374E-1,1.368184845E1,1.321107742E1,1.901956186E1
4.859861625E0,2.731819153E-1,1.293160858E1,1.278461426E1,1.818646449E1
4.869820625E0,1.405577087E-1,1.191911407E1,1.220995926E1,1.706364972E1
4.879779625E0,7.244934082E-2,1.095227463E1,1.163829803E1,1.598147520E1
4.889738625E0,1.621128845E-1,1.017299515E1,1.121108643E1,1.513950362E1
4.899697625E0,-4.969665527E-2,9.444310455E0,1.059706329E1,1.419490120E1
4.909656625E0,-4.550537109E-2,8.722361755E0,9.794432373E0,1.311535630E1
4.919615625E0,9.849517822E-2,7.895032196E0,9.189989319E0,1.211598689E1
4.929574625E0,2.978805542E-2,7.030729523E0,8.464897156E0,1.100393242E1
4.939533625E0,-1.097218323E-1,6.096821594E0,7.554490356E0,9.708429172E0
4.949492625E0,-5.243595886E-1,5.215304718E0,6.500831451E0,8.350758399E0
4.959451625E0,-3.053649902E-1,4.971312103E0,6.197262726E0,7.950676518E0
4.969410625E0,2.263293457E-1,5.295388184E0,6.925947418E0,8.721302003E0
4.979369625E0,6.048921204E-1,5.444777527E0,7.120093689E0,8.983720328E0
4.989328625E0,2.978805542E-1,4.753664703E0,6.340215454E0,7.929968029E0
4.999287625E0,-1.842668152E-1,3.649860077E0,4.998705139E0,6.192130967E0
5.009246625E0,-4.311035156E-1,2.493664398E0,3.920796661E0,4.666568207E0
5.019205625E0,-1.008602600E0,1.463207245E0,2.898722076E0,3.400124163E0
5.029164625E0,-1.354233856E0,1.205742645E0,1.715732117E0,2.496297530E0
5.039123625E0,-1.149010620E0,1.165027313E0,1.178199921E0,2.016350440E0
5.049082625E0,-7.840695190E-1,1.078357544E0,6.842271423E-1,1.498594937E0
5.059041625E0,-2.884501648E-1,9.083111572E-1,-2.504292297E-1,9.853666602E-1
5.069000625E0,2.676434326E-1,6.918612671E-1,-9.383985901E-1,1.196201042E0
5.078959625E0,7.349716187E-1,7.217990112E-1,-1.198258209E0,1.580189808E0
5.088918625E0,8.719367981E-1,7.111711121E-1,-1.370549927E0,1.773258366E0
5.098877625E0,6.185137939E-1,5.300477600E-1,-1.788480835E0,1.965241369E0
5.108836625E0,1.898052979E-1,2.803669739E-1,-2.200573883E0,2.226467405E0
5.118795625E0,-1.440005493E-1,7.439529419E-2,-2.491868134E0,2.497133880E0
5.128754625E0,-4.803511047E-1,-1.938468933E-1,-2.845283203E0,2.892049500E0
5.138713625E0,-5.688171387E-1,-4.186793518E-1,-3.164419556E0,3.242282600E0
5.148672625E0,-4.534071350E-1,-4.863386536E-1,-3.629053345E0,3.689462223E0
5.158631625E0,-4.613406372E-1,-5.674699402E-1,-4.069736938E0,4.134926368E0
5.168590625E0,-3.411405945E-1,-6.155200195E-1,-4.123026123E0,4.182653011E0
5.178549625E0,-2.204914856E-1,-2.962339783E-1,-3.716770935E0,3.735071251E0
5.188508625E0,-2.266287231E-1,-3.607498169E-2,-3.475921783E0,3.483488801E0
5.198466625E0,-5.170248413E-1,-4.385879517E-2,-3.584146729E0,3.621511570E0
5.208425625E0,-6.770420837E-1,-1.088237000E-1,-3.605103149E0,3.669740767E0
5.218384625E0,-7.104226685E-1,-2.222877502E-1,-3.739972687E0,3.813332914E0
5.228343625E0,-9.677375793E-1,-5.533992004E-1,-4.095483398E0,4.244496550E0
5.238302625E0,-1.081051941E0,-8.403524780E-1,-4.154011688E0,4.373863131E0
5.248261625E0,-1.224304047E0,-1.081351318E0,-4.192631378E0,4.499599865E0
5.258220625E0,-1.236578522E0,-1.132844238E0,-4.072131958E0,4.403943823E0
5.268179625E0,-1.179098053E0,-9.446855164E-1,-3.468736725E0,3.783495396E0
5.278138625E0,-9.080117798E-1,-4.281097412E-1,-2.495161285E0,2.689534009E0
5.288097625E0,-7.071295166E-1,1.227447510E-2,-1.869013367E0,1.998347763E0
5.298056625E0,-8.229885864E-1,3.367996216E-1,-1.500629425E0,1.744314441E0
5.308015625E0,-7.912545776E-1,6.333329773E-1,-1.091230774E0,1.489288108E0
5.317974625E0,-8.762777710E-1,6.845265198E-1,-7.843688965E-1,1.360762233E0
5.327933625E0,-8.539741516E-1,9.105564880E-1,-3.611988831E-1,1.299557464E0
5.337892625E0,-1.063238983E0,1.042432251E0,1.930984497E-2,1.489132299E0
5.347851625E0,-1.410965881E0,9.836045837E-1,5.195695496E-1,1.796734597E0
5.357810625E0,-1.567689972E0,1.114582214E0,1.295855255E0,2.319307268E0
5.367769625E0,-1.930685120E0,1.502725067E0,2.318977661E0,3.370962036E0
5.377728625E0,-1.934127960E0,2.299967194E0,3.647764435E0,4.726191430E0
5.387687625E0,-1.293160858E0,3.562142487E0,5.133874054E0,6.381049044E0
5.397646625E0,-5.213658142E-1,4.735103302E0,5.761369171E0,7.475720722E0
5.407605625E0,1.032852173E-2,5.258265381E0,6.111640778E0,8.062357874E0
5.417564625E0,1.657054138E-1,5.148992615E0,6.344257050E0,8.172464790E0
5.427523625E0,-2.082170105E-1,4.981790314E0,6.320606232E0,8.050568439E0
5.437482625E0,-5.300477600E-1,5.103337555E0,6.683601379E0,8.425884655E0
5.447441625E0,-6.098318481E-1,5.920188904E0,7.632029114E0,9.678243639E0
5.457400625E0,-3.248245239E-1,7.355853424E0,8.705446930E0,1.140170587E1
5.467359625E0,8.708889771E-1,9.261989594E0,9.985285492E0,1.364730102E1
5.477318625E0,1.966610413E0,1.112636261E1,1.085901855E1,1.567104928E1
5.487277625E0,2.166893921E0,1.252490433E1,1.086395828E1,1.672107195E1
5.497236625E0,2.123035126E0,1.328951431E1,1.095272369E1,1.735167499E1
5.507195625E0,1.921554108E0,1.368409378E1,1.122201370E1,1.780113435E1
5.517154625E0,2.114203491E0,1.430021255E1,1.161913788E1,1.854643633E1
5.527113625E0,2.582280121E0,1.524325150E1,1.222088654E1,1.970723102E1
5.537072625E0,2.999612274E0,1.652623352E1,1.316602112E1,2.134146622E1
5.547031625E0,3.183729401E0,1.794169006E1,1.356554031E1,2.271704777E1
5.556990625E0,3.159629517E0,1.917796921E1,1.408930115E1,2.400596110E1
5.566949625E0,2.909649353E0,2.008747787E1,1.468670883E1,2.505338786E1
5.576908625E0,2.446961517E0,2.051079758E1,1.499476822E1,2.552495861E1
5.586867625E0,1.878294067E0,2.075538895E1,1.529878601E1,2.585279506E1
5.596826625E0,1.317410431E0,2.114951935E1,1.549727325E1,2.625268019E1
5.606785625E0,9.357041931E-1,2.166774170E1,1.567255875E1,2.675809542E1
5.616744625E0,6.068380737E-1,2.212968109E1,1.595367416E1,2.728755682E1
5.626703625E0,2.097138977E-1,2.236409363E1,1.620634872E1,2.761960178E1
5.636662625E0,-1.026864624E-1,2.243893799E1,1.643477371E1,2.781399413E1
5.646621625E0,-1.417552185E-1,2.251378235E1,1.668235886E1,2.802127026E1
5.656580625E0,-4.541555786E-1,2.193059509E1,1.641321854E1,2.739618589E1
5.666539625E0,-9.163943481E-1,2.066138443E1,1.583542007E1,2.604790038E1
5.676498625E0,-1.146765289E0,1.916300034E1,1.510164597E1,2.442530170E1
5.686457625E0,-1.138532410E0,1.772389297E1,1.462773148E1,2.300876282E1
5.696417000E0,-9.864486694E-1,1.655063278E1,1.404753799E1,2.173085019E1
5.706376000E0,-6.580316162E-1,1.558394302E1,1.326975540E1,2.047873761E1
5.716335000E0,-6.930587769E-2,1.485989868E1,1.306064026E1,1.978387515E1
5.726294000E0,3.076103210E-1,1.440709030E1,1.320793396E1,1.954759306E1
5.736253000E0,2.372566223E-1,1.394829437E1,1.263642242E1,1.882260286E1
5.746212000E0,-1.615141296E-1,1.335926926E1,1.201970490E1,1.797135130E1
5.756171000E0,-3.489244080E-1,1.281784515E1,1.163829803E1,1.731672266E1
5.766130000E0,-2.200424194E-2,1.240245895E1,1.160222305E1,1.698331687E1
5.776089000E0,3.073109436E-1,1.175774963E1,1.166299667E1,1.656395508E1
5.786048000E0,2.191442871E-1,1.122815094E1,1.101694016E1,1.573189016E1
5.796007000E0,-0.000000000E0,1.078432388E1,1.051233948E1,1.506024312E1
5.805966000E0,-2.351609802E-1,1.034678375E1,1.023661285E1,1.455676741E1
5.815925000E0,-3.469784546E-1,1.001252884E1,9.855205994E0,1.405333459E1
5.825884000E0,-2.860551453E-1,9.592053223E0,9.667047272E0,1.362134779E1
5.835843000E0,-3.752696228E-1,8.949738922E0,9.287436676E0,1.290329935E1
5.845802000E0,-7.667056274E-1,8.226892090E0,8.663384399E0,1.197179269E1
5.855761000E0,-1.135987701E0,7.669002228E0,8.110733643E0,1.121998500E1
5.865720000E0,-1.166075134E0,7.708819427E0,7.705077209E0,1.096147084E1
5.875679000E0,-5.941145325E-1,7.895331573E0,7.457342377E0,1.087663496E1
5.885638000E0,-1.651066589E-1,7.679929504E0,7.085964661E0,1.045081205E1
5.895597000E0,1.335223389E-1,7.039261780E0,6.665189667E0,9.695039346E0
5.905556000E0,1.550775146E-1,6.027366028E0,6.147416382E0,8.610686293E0
5.915515000E0,-1.892065430E-1,4.944817200E0,5.263953552E0,7.224695375E0
5.925474000E0,-5.170248413E-1,4.100872192E0,4.048930206E0,5.786043833E0
5.935433000E0,-5.273533630E-1,3.469036102E0,3.396437073E0,4.883451427E0
5.945392000E0,-4.435276794E-1,3.154390411E0,2.775228882E0,4.224782955E0
5.955351000E0,-1.658551025E-1,2.916235657E0,1.937271423E0,3.504990569E0
5.965309000E0,6.451583862E-2,2.615960083E0,1.341360626E0,2.940519984E0
5.975269000E0,4.236190796E-2,2.295626221E0,1.018332367E0,2.511711585E0
5.985227000E0,-1.215472412E-1,2.157613220E0,1.046922913E0,2.401273855E0
5.995186000E0,-1.947450256E-1,2.089355164E0,9.375004578E-1,2.298311931E0
6.005145000E0,-3.567082214E-1,1.834285583E0,5.590873718E-1,1.950493026E0
6.015104000E0,-6.427633667E-1,1.342558136E0,1.038839722E-1,1.492112252E0
6.025063000E0,-1.162183228E0,7.610174561E-1,-6.659651184E-1,1.540560600E0
6.035022000E0,-1.581760712E0,2.592608643E-1,-1.472188568E0,2.176355285E0
6.044981000E0,-1.660197601E0,-6.182144165E-2,-2.176923065E0,2.738443353E0
6.054940000E0,-1.523082733E0,-1.646575928E-1,-2.842139740E0,3.228722880E0
6.064899000E0,-1.417851562E0,-3.861968994E-2,-3.113675079E0,3.421515312E0
6.074858000E0,-1.310973816E0,2.510279846E-1,-2.907104645E0,3.198894311E0
6.084817000E0,-1.191222839E0,5.849835205E-1,-2.722987518E0,3.029171272E0
6.094776000E0,-8.659492493E-1,8.291258240E-1,-2.499651947E0,2.772287429E0
6.104735000E0,-6.765930176E-1,9.271719360E-1,-2.448009338E0,2.703733646E0
6.114694000E0,-6.213578796E-1,8.098159790E-1,-2.606380005E0,2.799125625E0
6.124653000E0,-7.223977661E-1,6.221063232E-1,-3.125051422E0,3.267234488E0
6.134612000E0,-1.058149567E0,3.354524231E-1,-3.678450623E0,3.842292000E0
6.144571000E0,-1.384770355E0,1.227447510E-1,-4.104764099E0,4.333790895E0
6.154530000E0,-1.456770630E0,1.987866211E-1,-4.363875275E0,4.604900021E0
6.164489000E0,-1.278641052E0,4.231700134E-1,-4.213138733E0,4.423181410E0
6.174448000E0,-9.490264893E-1,7.433541870E-1,-4.018393707E0,4.195320573E0
6.184407000E0,-6.132746887E-1,1.094823303E0,-3.738326111E0,3.943326771E0
6.194366000E0,-4.020639038E-1,1.455124054E0,-3.386707306E0,3.707941177E0
6.204325000E0,-2.185455322E-1,1.788929901E0,-3.266207886E0,3.730435135E0
6.214284000E0,-1.902543640E-1,2.038460999E0,-3.183729401E0,3.785188616E0
6.224243000E0,-1.543290710E-1,2.179168396E0,-2.676883392E0,3.455184084E0
6.234202000E0,-1.884580994E-1,2.394570465E0,-2.497855682E0,3.465366817E0
6.244161000E0,-3.192860413E-1,2.349065094E0,-2.290985870E0,3.296766090E0
6.254120000E0,-3.532653809E-1,2.232457581E0,-2.066752167E0,3.062699430E0
6.264079000E0,-3.667373657E-1,2.168540497E0,-1.918710022E0,2.918649059E0
6.274038000E0,-1.365161133E-1,2.334096222E0,-1.728605347E0,2.907699824E0
6.283997000E0,-7.978408813E-2,2.695145416E0,-1.299896851E0,2.993310231E0
6.293956000E0,-2.655477905E-1,3.184477844E0,-6.459068298E-1,3.260154966E0
6.303915000E0,-2.164498901E-1,3.810625763E0,1.350192261E-1,3.819155594E0
6.313874000E0,6.571334839E-2,4.491559753E0,8.652008057E-1,4.574603775E0
6.323833000E0,5.962101746E-1,5.080135803E0,1.627565460E0,5.367701154E0
6.333792000E0,4.855902100E-1,5.510041809E0,2.094145203E0,5.914541632E0
6.343751000E0,3.293151855E-2,5.890251160E0,2.368674316E0,6.348760606E0
6.353710000E0,-2.977308655E-1,6.352190552E0,2.417772217E0,6.803277957E0
6.363669000E0,-5.114863586E-1,6.523284760E0,2.354902954E0,6.954166397E0
6.373628000E0,-4.590953064E-1,6.557413788E0,2.931354218E0,7.197449662E0
6.383587000E0,-4.766088867E-1,6.903793488E0,3.504961395E0,7.757207934E0
6.393546000E0,-2.112107849E-1,7.623047791E0,3.733536072E0,8.490863278E0
6.403505000E0,4.568499756E-1,8.631051636E0,4.503085785E0,9.745847620E0
6.413464000E0,8.657995605E-1,9.825867004E0,5.508544922E0,1.129784663E1
6.423423000E0,5.870791626E-1,1.089464447E1,6.141129456E0,1.252004038E1
6.433382000E0,1.270857239E-1,1.183738403E1,6.573879547E0,1.354089007E1
6.443341000E0,-3.047662354E-1,1.258358231E1,6.884034576E0,1.434675427E1
6.453300000E0,-4.954696655E-1,1.312276108E1,7.525600433E0,1.513562058E1
6.463259000E0,-4.523593140E-1,1.350326981E1,7.861352234E0,1.563149972E1
6.473218000E0,-3.317102051E-1,1.394664780E1,7.996221771E0,1.607975681E1
6.483177000E0,-3.861968994E-1,1.457399323E1,8.665480042E0,1.695998145E1
6.493136000E0,-7.548802185E-1,1.508353363E1,9.590107269E0,1.789002483E1
6.503095000E0,-1.215322723E0,1.565714081E1,1.045171555E1,1.886428969E1
6.513054000E0,-1.520687714E0,1.618808670E1,1.099493591E1,1.962792037E1
6.523013000E0,-1.723515930E0,1.644959290E1,1.140672958E1,2.009161749E1
6.532972000E0,-1.737287292E0,1.664568512E1,1.141107056E1,2.025609862E1
6.542931000E0,-1.511407013E0,1.664209259E1,1.107052872E1,2.004495455E1
6.552890000E0,-9.647438049E-1,1.655961411E1,1.076441528E1,1.977433150E1
6.562849000E0,-5.849835205E-1,1.653281982E1,1.048449738E1,1.958573517E1
6.572808000E0,-6.114784241E-1,1.628703094E1,1.030157776E1,1.928117702E1
6.582767000E0,-8.235873413E-1,1.581446365E1,1.011072464E1,1.878835569E1
6.592726000E0,-1.256786499E0,1.495046036E1,9.723479919E0,1.787853011E1
6.602685000E0,-1.720671844E0,1.392299698E1,9.207353210E0,1.678052173E1
6.612644000E0,-2.289638672E0,1.291304718E1,8.739575958E0,1.575974050E1
6.622603000E0,-2.874622192E0,1.199231186E1,7.983198853E0,1.469048877E1
6.632562000E0,-2.796784058E0,1.086829926E1,7.199129333E0,1.333301890E1
6.642521000E0,-2.760260010E0,1.033091675E1,6.081253967E0,1.230156600E1
6.652480000E0,-1.808539124E0,9.631571045E0,5.861959991E0,1.141930600E1
6.662439000E0,-2.154619446E0,8.825347595E0,5.696703644E0,1.072294631E1
6.672398000E0,-3.180585938E0,7.958200836E0,5.274282074E0,1.006315750E1
6.682357000E0,-4.212539978E0,7.015012207E0,4.795876923E0,9.484530815E0
6.692316000E0,-5.142855377E0,5.664370880E0,4.374503174E0,8.813077608E0
6.702275000E0,-5.013075256E0,4.414769440E0,5.504203949E0,8.655482300E0
6.712234000E0,-3.908522186E0,5.154082031E0,6.088888092E0,8.883448962E0
6.722193000E0,5.445675659E-1,8.977431335E0,7.772886200E0,1.188732885E1
6.732152000E0,3.209924927E0,9.967322845E0,7.362439728E0,1.280065082E1
6.742111000E0,4.417463837E0,9.419462128E0,7.292684784E0,1.270525501E1
6.752070000E0,3.388653259E0,8.356672211E0,7.530540161E0,1.174844570E1
6.762029000E0,1.099164276E0,7.486082611E0,8.638835449E0,1.148386141E1
6.771988000E0,-7.289840698E-1,6.817572784E0,9.277557220E0,1.153619454E1
6.781947000E0,-8.011340332E-1,6.694828033E0,8.928333435E0,1.118828298E1
6.791906000E0,1.576222229E-1,7.283104706E0,8.502918091E0,1.119678860E1
6.801865000E0,8.301736450E-1,7.014563141E0,6.750212860E0,9.770294673E0
6.811824000E0,1.838925934E0,6.965465240E0,6.530320129E0,9.723396300E0
6.821783000E0,2.794538727E0,6.721173248E0,7.104825439E0,1.017163512E1
6.831742000E0,2.944077759E0,6.319708099E0,6.684349823E0,9.658511110E0
6.841701000E0,2.832110596E0,6.298302612E0,6.522835693E0,9.499307959E0
6.851660000E0,2.451003113E0,6.344107361E0,6.266568604E0,9.247972563E0
6.861619000E0,1.821562042E0,6.375541992E0,6.109245758E0,9.016013959E0
6.871578000E0,1.217118988E0,6.467301178E0,6.246061249E0,9.073072483E0
6.881537000E0,4.194277954E-1,6.612199860E0,6.367608490E0,9.189316870E0
6.891496000E0,3.552113342E-1,6.696324921E0,6.431974640E0,9.291783483E0
6.901455000E0,1.121916962E0,6.726711731E0,6.386469269E0,9.343143909E0
6.911414000E0,1.493594055E0,6.644682312E0,6.263125763E0,9.252533196E0
6.921373000E0,1.616638184E0,6.588998108E0,6.088588715E0,9.115883260E0
6.931332000E0,1.578617249E0,6.612199860E0,5.797893219E0,8.934695584E0
6.941291000E0,1.366658020E0,6.616840210E0,5.676345978E0,8.824467812E0
6.951250000E0,1.129251709E0,6.712940369E0,6.010151825E0,9.080787564E0
6.961209000E0,8.614585876E-1,6.907386017E0,6.538852386E0,9.550428421E0
6.971168000E0,6.045927429E-1,7.088808746E0,7.069798279E0,1.002989479E1
6.981127000E0,7.000941467E-1,7.159312134E0,7.520061951E0,1.040659473E1
6.991086000E0,9.174421692E-1,7.116501160E0,7.643555145E0,1.048380771E1
7.001045000E0,1.061143341E0,7.008425903E0,7.505841522E0,1.032384210E1
7.011004000E0,9.979747009E-1,6.957232361E0,7.283703461E0,1.012182650E1
7.020963000E0,8.975335693E-1,6.998845825E0,7.056176605E0,9.978929686E0
7.030922000E0,7.720944214E-1,7.148833923E0,6.874604187E0,9.947971602E0
7.040881000E0,7.247927856E-1,7.282206573E0,6.800208893E0,9.989929837E0
7.050840000E0,7.147636414E-1,7.311096497E0,6.646029510E0,9.906196409E0
7.060799000E0,7.509883118E-1,7.279512177E0,6.505621490E0,9.791751220E0
7.070758000E0,6.560856628E-1,7.254065094E0,6.511459351E0,9.769903360E0
7.080717000E0,5.852828979E-1,7.281308441E0,6.483617249E0,9.767154207E0
7.090676000E0,6.081852722E-1,7.292235718E0,6.493646393E0,9.783354975E0
7.100635000E0,6.123765564E-1,7.246880035E0,6.571334839E0,9.801771108E0
7.110594000E0,5.248086548E-1,7.256160736E0,6.604266357E0,9.825661651E0
7.120553000E0,6.468049622E-1,7.241341553E0,6.573580170E0,9.801394819E0
7.130512000E0,6.917115784E-1,7.139852600E0,6.643933868E0,9.777413631E0
7.140471000E0,5.104385376E-1,7.188501434E0,6.700965271E0,9.840631887E0
7.150430000E0,6.424639893E-1,7.242389374E0,6.719526672E0,9.900353656E0
7.160389000E0,8.144563293E-1,7.232809296E0,6.666087799E0,9.869832621E0
7.170348000E0,9.922865295E-1,7.245532837E0,5.956263885E0,9.431832172E0
7.180307000E0,7.560777283E-1,7.094945984E0,5.908812561E0,9.264123160E0
7.190266000E0,5.254074097E-1,7.031477966E0,6.355483704E0,9.492623897E0
7.200225000E0,6.367758179E-1,7.208709412E0,6.271059265E0,9.575863362E0
7.210184000E0,6.670129395E-1,7.140750732E0,6.610702972E0,9.753800340E0
7.220143000E0,7.059320068E-1,7.050338745E0,6.841223602E0,9.849261739E0
7.230102000E0,7.441026306E-1,7.140601044E0,7.019353180E0,1.004057723E1
7.240061000E0,7.960446167E-1,7.250472565E0,7.247927856E0,1.028277675E1
7.250020000E0,1.023122406E0,7.179071045E0,7.061864777E0,1.012204400E1
7.259979000E0,1.022074585E0,7.178771667E0,6.450086975E0,9.704793717E0