"Time (s)","Acceleration x (m/s^2)","Acceleration y (m/s^2)","Acceleration z (m/s^2)","Absolute acceleration (m/s^2)"
-2.004625043E-3,-3.221301270E0,6.518345032E0,7.018754425E0,1.010586550E1
7.954374945E-3,-2.994373169E0,6.418502655E0,6.715185699E0,9.759977766E0
1.791337499E-2,-2.901117096E0,6.300847321E0,6.481371918E0,9.493436643E0
2.787237498E-2,-2.997816010E0,6.302194519E0,6.330785065E0,9.422494156E0
3.783137497E-2,-3.058140564E0,6.259383545E0,6.193071442E0,9.321278880E0
4.779037496E-2,-3.194357300E0,6.326593781E0,6.125861206E0,9.367811000E0
5.774937494E-2,-3.309467926E0,6.466253357E0,6.228397980E0,9.568591946E0
6.770937500E-2,-3.428919525E0,6.573280792E0,6.321504364E0,9.743045053E0
7.766837499E-2,-3.492986298E0,6.589746552E0,6.350244598E0,9.795474432E0
8.762737497E-2,-3.401227112E0,6.581513672E0,6.303990784E0,9.727536578E0
9.758637496E-2,-3.232976990E0,6.580166473E0,6.288123779E0,9.658738618E0
1.075453750E-1,-3.035986633E0,6.477629700E0,6.359225922E0,9.571658983E0
1.175043750E-1,-2.804567871E0,6.305337982E0,6.514902191E0,9.490355029E0
1.274633750E-1,-2.661615143E0,6.165229340E0,6.702611847E0,9.487847677E0
1.374223750E-1,-2.577340393E0,6.066135406E0,6.763984222E0,9.444160356E0
1.473813750E-1,-2.453547821E0,5.893394623E0,6.667285309E0,9.230638682E0
1.573403749E-1,-2.390977936E0,5.863307190E0,6.572083282E0,9.126194462E0
1.672993750E-1,-2.475851440E0,6.012247467E0,6.510710907E0,9.201430132E0
1.772583750E-1,-2.571502533E0,5.998925171E0,6.495442657E0,9.208175921E0
1.872173750E-1,-2.704575806E0,5.974825287E0,6.562203827E0,9.277703733E0
1.971773750E-1,-2.836900635E0,5.989943848E0,6.655010834E0,9.392369334E0
2.071363750E-1,-2.832409973E0,6.017037506E0,6.746171265E0,9.473020286E0
2.170953749E-1,-2.701582031E0,6.004164276E0,6.811285858E0,9.473233301E0
2.270543750E-1,-2.582429810E0,5.990243225E0,6.876699829E0,9.478447033E0
2.370133750E-1,-2.500849457E0,5.931116180E0,6.903494110E0,9.438782659E0
2.469723750E-1,-2.565065918E0,5.930218048E0,6.876999207E0,9.436109757E0
2.569313750E-1,-2.699486389E0,5.989195404E0,6.756948853E0,9.424120444E0
2.668903750E-1,-2.794389038E0,6.022276611E0,6.622229004E0,9.377118036E0
2.768493750E-1,-2.784659271E0,6.058351593E0,6.528374176E0,9.331539030E0
2.868083750E-1,-2.776725769E0,6.034102020E0,6.604116669E0,9.366693662E0
2.967673750E-1,-2.855162659E0,5.910159760E0,6.725214844E0,9.397364358E0
3.067263750E-1,-2.940335541E0,5.727240143E0,6.889423370E0,9.429263339E0
3.166853750E-1,-2.908302155E0,5.549260254E0,6.983876953E0,9.382273077E0
3.266453750E-1,-2.849324799E0,5.370082855E0,7.133266296E0,9.372295863E0
3.366043750E-1,-2.815495148E0,4.951553192E0,7.475454712E0,9.398261280E0
3.465633750E-1,-2.250270538E0,4.460274811E0,7.366780701E0,8.900967744E0
3.565223750E-1,-1.708097992E0,4.225562897E0,7.273824005E0,8.583792647E0
3.664813749E-1,-1.911974030E0,4.480931854E0,6.995852051E0,8.525041987E0
3.764403750E-1,-2.088457031E0,4.761448517E0,6.896907806E0,8.637151269E0
3.863993750E-1,-2.278711395E0,4.839286652E0,6.765780487E0,8.624790230E0
3.963583750E-1,-2.572700043E0,4.751718750E0,6.571484528E0,8.507762660E0
4.063173750E-1,-2.675536194E0,4.498295746E0,6.350543976E0,8.229372232E0
4.162763749E-1,-2.822231140E0,4.092789001E0,5.559289398E0,7.457989611E0
4.262353750E-1,-3.176694031E0,4.067790985E0,5.482948151E0,7.530008558E0
4.361943750E-1,-3.309318237E0,4.180656281E0,5.831273804E0,7.901470009E0
4.461533750E-1,-3.977828064E0,4.189338226E0,5.553451538E0,8.013394716E0
4.561133750E-1,-4.476141815E0,4.293222198E0,5.496120758E0,8.287034800E0
4.660722917E-1,-3.966451721E0,4.499193878E0,5.759872284E0,8.315744918E0
4.760312916E-1,-3.777993622E0,4.483326874E0,6.112538910E0,8.469745426E0
4.859902916E-1,-4.227957916E0,4.148922272E0,6.418352966E0,8.734096345E0
4.959492916E-1,-4.511019287E0,3.792962494E0,6.966063995E0,9.124796276E0
5.059082916E-1,-4.733007660E0,3.451821899E0,7.610024872E0,9.603588625E0
5.158672917E-1,-5.010380859E0,3.072660370E0,8.007747803E0,9.933236279E0
5.258262916E-1,-4.908293152E0,2.905907135E0,8.152796173E0,9.950061476E0
5.357852916E-1,-4.753515015E0,2.952460327E0,8.140372009E0,9.878187254E0
5.457442916E-1,-4.918921051E0,2.756966858E0,7.717800751E0,9.558300005E0
5.557032916E-1,-5.063969421E0,2.594105530E0,7.043752441E0,9.054701445E0
5.656622917E-1,-5.132077789E0,2.587968292E0,6.496191101E0,8.673886161E0
5.756212916E-1,-4.919968872E0,2.919079742E0,6.314768372E0,8.520764040E0
5.855802916E-1,-4.694088593E0,3.360511780E0,6.560856628E0,8.739127350E0
5.955402916E-1,-4.952750702E0,3.280128937E0,7.120393066E0,9.273024468E0
6.054992916E-1,-4.978197784E0,2.898871765E0,7.573800201E0,9.515690211E0
6.154582917E-1,-4.862787781E0,2.577041016E0,7.697742462E0,9.462720772E0
6.254172917E-1,-5.091961212E0,2.606978760E0,8.486003265E0,1.023409296E1
6.353762916E-1,-4.756658478E0,2.598446503E0,1.018646713E1,1.153871036E1
6.453352916E-1,-4.359234924E0,2.366728363E0,1.167182831E1,1.268210977E1
6.552942916E-1,-4.258344727E0,2.810854797E0,1.292472290E1,1.389542610E1
6.652532917E-1,-4.490362244E0,3.167413330E0,1.422985886E1,1.525400745E1
6.752122917E-1,-4.764891357E0,3.178939362E0,1.507260635E1,1.612430797E1
6.851712916E-1,-4.653522949E0,3.239413605E0,1.538291107E1,1.639460367E1
6.951302916E-1,-4.449796600E0,3.115621033E0,1.566746933E1,1.658244190E1
7.050892916E-1,-4.160897369E0,2.744393005E0,1.584110825E1,1.660678989E1
7.150482917E-1,-3.908671875E0,2.191742249E0,1.590173218E1,1.652109367E1
7.250072917E-1,-3.877835999E0,1.704355774E0,1.569665863E1,1.625815281E1
7.349662916E-1,-3.709136810E0,1.373543701E0,1.519280640E1,1.569922560E1
7.449262916E-1,-3.590283966E0,1.120869141E0,1.475257187E1,1.522448237E1
7.548852916E-1,-3.512745209E0,6.363267517E-1,1.450783081E1,1.494059723E1
7.648442917E-1,-3.664529572E0,-4.236190796E-2,1.431578018E1,1.477741972E1
7.748032917E-1,-4.033063202E0,-7.214996338E-1,1.389769958E1,1.448903773E1
7.847622916E-1,-4.371958466E0,-1.407822418E0,1.342543167E1,1.418936927E1
7.947212916E-1,-4.639901276E0,-2.048190765E0,1.290331741E1,1.386432002E1
8.046802916E-1,-4.865781555E0,-2.609822845E0,1.204724762E1,1.325228964E1
8.146392917E-1,-4.445455627E0,-3.091221771E0,1.094404175E1,1.221023249E1
8.245982917E-1,-3.355422363E0,-3.428769836E0,9.963131561E0,1.105799766E1
8.345572916E-1,-2.270328827E0,-3.883823547E0,9.079519043E0,1.013292378E1
8.445162916E-1,-1.439406738E0,-4.383634186E0,8.356821899E0,9.545921259E0
8.544752916E-1,-6.831793213E-1,-4.835394745E0,7.713609467E0,9.129487791E0
8.644342917E-1,-8.337661743E-2,-5.254972229E0,7.297325134E0,8.992921600E0
8.743932917E-1,1.758842468E-1,-5.598807220E0,7.097041626E0,9.041326086E0
8.843522916E-1,9.699829102E-2,-5.853128357E0,6.697372742E0,8.895129109E0
8.943112916E-1,-1.682501221E-1,-6.076164551E0,6.164480896E0,8.657303764E0
9.042712916E-1,-5.114863586E-1,-6.374344482E0,5.913602600E0,8.710027646E0
9.142302916E-1,-2.468367004E-1,-6.849905548E0,5.985902252E0,9.100173633E0
9.241892917E-1,6.581813049E-1,-7.116501160E0,6.475683746E0,9.644286981E0
9.341482916E-1,1.616638184E0,-7.089557190E0,6.796017609E0,9.952949086E0
9.441072916E-1,2.336042175E0,-6.901398468E0,7.123536530E0,1.018975792E1
9.540662916E-1,2.628234558E0,-6.632557526E0,7.317084045E0,1.021949877E1
9.640252916E-1,2.784659271E0,-6.313570862E0,7.397915955E0,1.011655400E1
9.739842917E-1,2.559677124E0,-6.267017670E0,7.124883728E0,9.828093690E0
9.839432916E-1,1.616488495E0,-6.774612122E0,6.886579285E0,9.794558627E0
9.939022916E-1,5.454656982E-1,-7.168293457E0,6.477330322E0,9.676661202E0
1.003861292E0,3.276686096E-1,-7.409891052E0,6.138135681E0,9.627593768E0
1.013820292E0,1.118923187E0,-7.510481873E0,6.381679230E0,9.918929219E0
1.023779292E0,1.901495819E0,-7.414381714E0,6.804849243E0,1.024181213E1
1.033738292E0,2.339934082E0,-7.258555756E0,7.211703186E0,1.049621770E1
1.043697292E0,2.634671173E0,-6.994055786E0,7.244485016E0,1.040869212E1
1.053656292E0,3.002007294E0,-6.263425140E0,7.197632446E0,1.000242246E1
1.063616292E0,3.344644775E0,-5.312452698E0,7.645052032E0,9.892200105E0
1.073575292E0,3.165916443E0,-4.762496338E0,8.218808899E0,1.001265290E1
1.083534292E0,2.872376862E0,-4.702770538E0,8.606053619E0,1.021913688E1
1.093493292E0,2.996468811E0,-4.405937805E0,8.831484833E0,1.031437044E1
1.103452292E0,2.836301880E0,-4.060755615E0,9.090596008E0,1.035245286E1
1.113411292E0,2.660417633E0,-4.096531219E0,9.531279602E0,1.071002712E1
1.123370292E0,2.292482758E0,-4.195176086E0,1.000235001E1,1.108611678E1
1.133329292E0,2.128872986E0,-3.799997864E0,1.034603531E1,1.122553030E1
1.143288292E0,2.231260071E0,-3.111130371E0,1.089674011E1,1.154974453E1
1.153247292E0,2.305655365E0,-2.476749573E0,1.153501282E1,1.202110044E1
1.163206292E0,2.441872101E0,-1.969005432E0,1.213376770E1,1.253267890E1
1.173165292E0,2.286644897E0,-1.740430756E0,1.245005997E1,1.277739556E1
1.183124292E0,1.679956512E0,-1.682201843E0,1.241802658E1,1.264355334E1
1.193083292E0,9.268725586E-1,-1.286125488E0,1.255753647E1,1.265720876E1
1.203042292E0,6.081852722E-1,-5.845344543E-1,1.280572037E1,1.283347357E1
1.213002292E0,7.544311523E-1,1.603166199E-1,1.329355591E1,1.331591140E1
1.222961292E0,1.562899933E0,1.145268402E0,1.371268433E1,1.384889914E1
1.232920292E0,1.813029785E0,2.064057770E0,1.398451904E1,1.425181337E1
1.242879292E0,1.864522705E0,2.065404968E0,1.499102600E1,1.524707195E1
1.252838292E0,1.565893707E0,2.313738556E0,1.544413376E1,1.569479776E1
1.262797292E0,1.161883850E0,3.072360992E0,1.540671158E1,1.575297235E1
1.272756292E0,6.457571411E-1,3.684587860E0,1.524040741E1,1.569277566E1
1.282715292E0,7.589218140E-2,3.913461914E0,1.547437088E1,1.596173856E1
1.292674292E0,5.298980713E-2,3.845802612E0,1.586715408E1,1.632665258E1
1.302633292E0,1.730401611E-1,4.028422852E0,1.592807739E1,1.643051378E1
1.312592292E0,1.896556091E-1,4.539609833E0,1.568228851E1,1.632722266E1
1.322551292E0,5.104385376E-2,5.032235413E0,1.526989609E1,1.607780225E1
1.332510292E0,-2.655477905E-1,5.358706512E0,1.490869720E1,1.584473109E1
1.342469292E0,-7.441026306E-1,5.509293365E0,1.474089615E1,1.575436515E1
1.352428292E0,-1.495390320E0,5.450166321E0,1.460168564E1,1.565725802E1
1.362387292E0,-2.186952209E0,5.322332153E0,1.452130280E1,1.561980200E1
1.372347292E0,-2.544408875E0,5.050796814E0,1.451366867E1,1.557662169E1
1.382306292E0,-2.306553497E0,4.959187317E0,1.438089478E1,1.538583317E1
1.392265292E0,-1.852996674E0,5.148094482E0,1.399649414E1,1.502791808E1
1.402224292E0,-1.502575378E0,5.432802429E0,1.344578934E1,1.457951734E1
1.412183292E0,-1.017583923E0,5.762866058E0,1.327095291E1,1.450394062E1
1.422142292E0,-6.270460510E-1,5.805677032E0,1.341225906E1,1.462832067E1
1.432101292E0,-5.909710693E-1,5.376669159E0,1.371777374E1,1.474568189E1
1.442060292E0,-8.587641907E-1,4.658312988E0,1.397374146E1,1.475475537E1
1.452019292E0,-1.134790192E0,3.952380981E0,1.398137558E1,1.457353517E1
1.461978042E0,-1.364861755E0,3.398383026E0,1.368873413E1,1.417015515E1
1.471937042E0,-1.466799774E0,3.046764221E0,1.321601715E1,1.364175147E1
1.481896042E0,-1.360221405E0,2.769391022E0,1.289209076E1,1.325615831E1
1.491855042E0,-1.183139648E0,2.456391907E0,1.278266830E1,1.307020618E1
1.501814042E0,-1.049317932E0,1.992356873E0,1.300420761E1,1.319772593E1
1.511773042E0,-7.259902954E-1,1.391805725E0,1.374142456E1,1.383079658E1
1.521732042E0,-3.677851868E-1,9.922865295E-1,1.477547424E1,1.481332298E1
1.531692042E0,-6.616241455E-2,8.728349304E-1,1.544802567E1,1.547280567E1
1.541651042E0,-1.975891113E-2,8.403524780E-1,1.580233887E1,1.582467998E1
1.551610042E0,-1.528321838E-1,5.474116516E-1,1.586670502E1,1.587688084E1
1.561569042E0,-5.653742981E-1,-5.074447632E-2,1.583422256E1,1.584439419E1
1.571528042E0,-1.014590149E0,-8.699908447E-1,1.582868408E1,1.588500919E1
1.581487042E0,-1.328637085E0,-1.691332855E0,1.555161026E1,1.569963264E1
1.591446042E0,-1.396595764E0,-2.393822021E0,1.518966293E1,1.544042498E1
1.601405042E0,-1.104852448E0,-3.018622742E0,1.496168701E1,1.530309970E1
1.611364042E0,-6.821315002E-1,-3.714525604E0,1.490690094E1,1.537786394E1
1.621323042E0,-3.248245239E-1,-4.409380646E0,1.457354416E1,1.522945626E1
1.631282042E0,-9.160949707E-2,-4.965174866E0,1.395083908E1,1.480835118E1
1.641241042E0,2.312690735E-1,-5.487139435E0,1.326945602E1,1.436108101E1
1.651200042E0,5.604345703E-1,-5.978567505E0,1.249167343E1,1.385998779E1
1.661159042E0,8.388555908E-1,-6.396049347E0,1.168604874E1,1.334829057E1
1.671118042E0,1.034648438E0,-6.811884613E0,1.098041611E1,1.296309405E1
1.681077042E0,1.361418915E0,-7.217091980E0,1.032582733E1,1.267132938E1
1.691036042E0,1.782792664E0,-7.565118256E0,9.780062256E0,1.249235693E1
1.700996042E0,2.135309601E0,-7.805817719E0,9.280251617E0,1.231313963E1
1.710955042E0,2.382595367E0,-7.951464844E0,8.700956268E0,1.202535629E1
1.720914042E0,2.546504517E0,-7.923473053E0,8.029602356E0,1.156462816E1
1.730873042E0,2.683170319E0,-7.756121063E0,7.441175995E0,1.107826327E1
1.740832042E0,2.724334717E0,-7.549700317E0,6.901697845E0,1.058552822E1
1.750791042E0,2.766397247E0,-7.340285797E0,6.474935303E0,1.017140779E1
1.760750042E0,2.822380829E0,-7.091203766E0,6.254892883E0,9.867861439E0
1.770709042E0,2.951861572E0,-6.764133911E0,6.448739777E0,9.800675437E0
1.780668042E0,2.999761963E0,-6.370302887E0,6.738237762E0,9.745931400E0
1.790627042E0,3.091371460E0,-5.950575714E0,6.875352631E0,9.603978479E0
1.800586042E0,3.288661194E0,-5.565127258E0,6.868317261E0,9.431845834E0
1.810545042E0,3.397035828E0,-5.195246429E0,6.868167572E0,9.257546310E0
1.820504042E0,3.363206177E0,-4.964276733E0,6.870861969E0,9.119426707E0
1.830463042E0,3.350033569E0,-4.873715057E0,6.867868195E0,9.063301656E0
1.840422042E0,3.282523956E0,-4.766837311E0,7.010072479E0,9.090589510E0
1.850381042E0,2.980601807E0,-4.596192169E0,7.368427277E0,9.181649640E0
1.860340042E0,2.632126465E0,-4.467759247E0,7.730823669E0,9.308845096E0
1.870299042E0,2.584824829E0,-4.374203796E0,8.040230255E0,9.511060972E0
1.880258042E0,2.529589691E0,-4.264332275E0,8.251590729E0,9.626635098E0
1.890218042E0,2.320175171E0,-3.963158569E0,8.333320770E0,9.514939502E0
1.900177042E0,2.187700653E0,-3.514990540E0,8.425529022E0,9.387796970E0
1.910136042E0,2.109413452E0,-3.003803558E0,8.658294983E0,9.404176356E0
1.920095042E0,1.693877563E0,-2.249222717E0,8.966204681E0,9.397927986E0
1.930054042E0,1.138831787E0,-1.412762146E0,9.298813019E0,9.474215444E0
1.940013042E0,6.982978821E-1,-1.016835480E0,9.402846680E0,9.483411834E0
1.949972042E0,2.606080627E-1,-1.097966766E0,9.448651428E0,9.515800618E0
1.959931042E0,-2.323168945E-1,-1.651365967E0,9.718091125E0,9.860135690E0
1.969890042E0,-6.912625122E-1,-2.270328827E0,9.691745911E0,9.978084768E0
1.979849042E0,-8.711883545E-1,-2.312840424E0,9.287586365E0,9.610799158E0
1.989808042E0,-8.128097534E-1,-1.849703522E0,8.719517670E0,8.950533571E0
1.999767042E0,-7.297325134E-1,-1.266815643E0,8.151149597E0,8.281217976E0
2.009726042E0,-7.295828247E-1,-7.655081177E-1,7.735464020E0,7.807412976E0
2.019685042E0,-7.322772217E-1,-3.712280273E-1,7.666756897E0,7.710590217E0
2.029644042E0,-8.187973022E-1,-8.023315430E-2,7.995473328E0,8.037689974E0
2.039603042E0,-1.077309723E0,3.293151855E-1,8.499325562E0,8.573656147E0
2.049562042E0,-1.582060089E0,9.333091736E-1,9.164542236E0,9.346807719E0
2.059521042E0,-2.033221893E0,1.464255066E0,1.007584717E1,1.038271305E1
2.069480042E0,-2.312541046E0,1.736089783E0,1.081051941E1,1.119058460E1
2.079439042E0,-2.484234009E0,1.930086365E0,1.119641693E1,1.162997868E1
2.089399042E0,-2.632725220E0,2.207758942E0,1.141092087E1,1.191698606E1
2.099358042E0,-2.699486389E0,2.770289154E0,1.171598648E1,1.233799287E1
2.109317042E0,-2.650538177E0,3.373085632E0,1.193587921E1,1.268338566E1
2.119276042E0,-2.556533661E0,3.847000122E0,1.204889420E1,1.290391900E1
2.129235042E0,-2.539768524E0,4.351750488E0,1.215726883E1,1.316006618E1
2.139194042E0,-2.646795959E0,4.892725525E0,1.223136475E1,1.343691093E1
2.149153042E0,-2.706821136E0,5.381010132E0,1.244197678E1,1.382334753E1
2.159112042E0,-2.772384796E0,5.798192596E0,1.302426590E1,1.452365853E1
2.169071042E0,-3.068169708E0,6.329587555E0,1.376642258E1,1.545935751E1
2.179030042E0,-3.333717499E0,6.924151154E0,1.428464493E1,1.622062336E1
2.188989042E0,-3.466641083E0,7.599846039E0,1.458896210E1,1.681109976E1
2.198948042E0,-3.520978088E0,8.398585052E0,1.472802292E1,1.731612476E1
2.208907042E0,-3.564687195E0,9.160500641E0,1.485870117E1,1.781580106E1
2.218866042E0,-3.519930267E0,9.833201752E0,1.524235336E1,1.847731317E1
2.228825042E0,-3.418291626E0,1.028077103E1,1.570713684E1,1.908122423E1
2.238784042E0,-3.367846527E0,1.045291306E1,1.598031876E1,1.939011009E1
2.248743042E0,-3.278332672E0,1.048015640E1,1.601070557E1,1.941452642E1
2.258702042E0,-2.976410522E0,1.037881714E1,1.579560287E1,1.913321549E1
2.268661042E0,-2.358645172E0,1.020996826E1,1.542437485E1,1.864719814E1
2.278620042E0,-1.651515656E0,1.010758118E1,1.515792892E1,1.829353740E1
2.288579042E0,-1.140328674E0,9.980495453E0,1.495929199E1,1.801918577E1
2.298539042E0,-1.012045441E0,9.891131287E0,1.462728241E1,1.768660806E1
2.308498042E0,-1.136885834E0,9.538314972E0,1.437176376E1,1.728639799E1
2.318457042E0,-1.279389496E0,8.817264404E0,1.421578812E1,1.677705638E1
2.328416042E0,-1.492695923E0,8.126450958E0,1.416654053E1,1.639994563E1
2.338375042E0,-1.564097443E0,7.553442535E0,1.433958069E1,1.628264319E1
2.348334042E0,-1.424886932E0,7.145840149E0,1.466694992E1,1.637720227E1
2.358293042E0,-1.398990784E0,6.936874695E0,1.485675522E1,1.645601961E1
2.368252042E0,-1.374292145E0,6.897506561E0,1.537228317E1,1.690477346E1
2.378211042E0,-1.236428833E0,7.016509094E0,1.631487305E1,1.780267504E1
2.388170042E0,-9.363029480E-1,7.270231476E0,1.724399094E1,1.873734646E1
2.398129042E0,-7.123686218E-1,7.663014679E0,1.795336578E1,1.953337160E1
2.408088042E0,-4.062551880E-1,7.647447052E0,1.848835327E1,2.001168899E1
2.418047042E0,-1.386117554E-1,7.337441711E0,1.856873611E1,1.996635232E1
2.428006042E0,9.101074219E-2,6.974446564E0,1.831187027E1,1.959529996E1
2.437965042E0,2.832110596E-1,6.526428223E0,1.786205566E1,1.901913527E1
2.447924042E0,8.517288208E-2,5.684578857E0,1.762614624E1,1.852033268E1
2.457883042E0,-4.246669006E-1,4.474195862E0,1.734473145E1,1.791754669E1
2.467842250E0,-7.586224365E-1,3.536845093E0,1.666873718E1,1.705671658E1
2.477801250E0,-1.013242950E0,3.027005310E0,1.546733551E1,1.579328624E1
2.487761250E0,-1.146016846E0,2.833906860E0,1.429931442E1,1.462240663E1
2.497720250E0,-1.154998169E0,2.544857941E0,1.341734848E1,1.370531149E1
2.507679250E0,-9.867480469E-1,2.182461548E0,1.288670197E1,1.310739858E1
2.517638250E0,-7.671546936E-1,1.810634766E0,1.262519577E1,1.277742121E1
2.527597250E0,-5.122348022E-1,1.404678955E0,1.234258347E1,1.243281441E1
2.537556250E0,-2.124082947E-1,1.100661163E0,1.202374649E1,1.207588721E1
2.547515250E0,1.001417542E-1,7.728428650E-1,1.164054337E1,1.166660037E1
2.557474250E0,2.962339783E-1,4.086502075E-1,1.092503128E1,1.093668405E1
2.567433250E0,5.689668274E-1,1.172062683E-1,9.938432922E0,9.955396000E0
2.577392250E0,7.349716187E-1,-2.665956116E-1,8.804091797E0,8.838737968E0
2.587351250E0,8.020321655E-1,-7.367678833E-1,7.741601257E0,7.817830424E0
2.597310250E0,8.208929443E-1,-1.175954590E0,6.780000916E0,6.930017809E0
2.607269250E0,7.499404907E-1,-1.466949463E0,5.911506958E0,6.136796068E0
2.617228250E0,5.771997070E-1,-1.592538300E0,5.145250397E0,5.416912348E0
2.627187250E0,3.980223083E-1,-1.560355225E0,4.568050690E0,4.843574846E0
2.637146250E0,3.254232788E-1,-1.461410980E0,4.135450287E0,4.398132722E0
2.647105250E0,2.847079468E-1,-1.438358917E0,3.950584717E0,4.213912030E0
2.657064250E0,3.882925415E-1,-1.464255066E0,3.961362305E0,4.241132550E0
2.667023250E0,6.532415771E-1,-1.378333740E0,3.904031525E0,4.191418686E0
2.676982250E0,9.743238831E-1,-1.212029572E0,3.755989380E0,4.065191131E0
2.686942250E0,1.317410431E0,-1.073717194E0,3.745960236E0,4.113472613E0
2.696901250E0,1.522483978E0,-1.167721710E0,3.480861511E0,3.974660780E0
2.706860250E0,1.628762970E0,-1.399439850E0,3.196153564E0,3.850545197E0
2.716819250E0,1.849853210E0,-1.604513397E0,2.860551453E0,3.765524499E0
2.726778250E0,1.963167572E0,-1.702409821E0,2.437680817E0,3.562936131E0
2.736737250E0,2.041155396E0,-1.826052704E0,2.183359680E0,3.502548118E0
2.746696250E0,2.087708588E0,-1.898651733E0,2.002086639E0,3.460022610E0
2.756655250E0,2.163900146E0,-1.784139862E0,1.983076172E0,3.434852252E0
2.766614250E0,2.216440887E0,-1.537153473E0,2.124532013E0,3.433524032E0
2.776573250E0,2.299069061E0,-1.113534393E0,2.494263153E0,3.570297757E0
2.786532250E0,2.427651672E0,-6.577322388E-1,3.091371460E0,3.985308250E0
2.796491250E0,2.570754089E0,-5.562432861E-1,3.389551392E0,4.290366164E0
2.806450250E0,2.667902069E0,-6.189628601E-1,3.450325012E0,4.405174135E0
2.816409250E0,2.889441376E0,-5.227130127E-1,3.517385559E0,4.581932074E0
2.826368250E0,3.132386169E0,-4.745132446E-1,3.411256256E0,4.655499455E0
2.836327250E0,3.106190643E0,-3.646417236E-1,3.209026794E0,4.480986149E0
2.846286250E0,2.883902893E0,-1.002914429E-1,3.299289093E0,4.383179530E0
2.856245250E0,2.402354279E0,4.653822327E-1,3.761677551E0,4.487549967E0
2.866205250E0,1.918560333E0,7.174580383E-1,4.364024963E0,4.820822925E0
2.876164250E0,1.840722198E0,7.861651611E-1,5.164859619E0,5.539141518E0
2.886123250E0,1.806293793E0,9.424401855E-1,5.809269562E0,6.156176054E0
2.896082250E0,2.020648041E0,9.478289795E-1,5.886658630E0,6.295565750E0
2.906041250E0,2.291734314E0,1.165775757E0,5.649252319E0,6.206861610E0
2.916000250E0,2.350711670E0,1.750160522E0,5.633085938E0,6.349847588E0
2.925959250E0,2.290237427E0,2.423610077E0,5.989644470E0,6.855283667E0
2.935918250E0,2.101479950E0,3.096460876E0,6.774013367E0,7.738962788E0
2.945877250E0,1.716330872E0,3.714226227E0,7.864795074E0,8.865453721E0
2.955836250E0,1.393601990E0,4.290527802E0,8.678353271E0,9.780826694E0
2.965795250E0,1.107546844E0,4.994663544E0,9.273216248E0,1.059083866E1
2.975754250E0,7.502398682E-1,5.846691742E0,9.586514740E0,1.125379621E1
2.985713250E0,2.794688416E-1,6.792574768E0,9.766590271E0,1.189972522E1
2.995672250E0,-1.495390320E-1,7.811206512E0,1.030966095E1,1.293547131E1
3.005631250E0,-8.096662903E-1,8.438102875E0,1.091365494E1,1.381900878E1
3.015590250E0,-1.824406128E0,9.080267487E0,1.150028503E1,1.476605131E1
3.025549250E0,-3.020868073E0,9.889335022E0,1.204694824E1,1.587619454E1
3.035508250E0,-3.904630280E0,1.102906494E1,1.271096741E1,1.727585319E1
3.045468250E0,-4.386478271E0,1.251727020E1,1.349892883E1,1.892470144E1
3.055427250E0,-4.280199280E0,1.422566757E1,1.439990524E1,2.068929662E1
3.065386250E0,-3.969445496E0,1.562899933E1,1.472547821E1,2.183716616E1
3.075345250E0,-3.921545105E0,1.665526520E1,1.444211746E1,2.239087161E1
3.085304250E0,-4.413422241E0,1.705373657E1,1.390698029E1,2.244353643E1
3.095263250E0,-4.941823425E0,1.697050964E1,1.335388046E1,2.215278627E1
3.105222250E0,-5.146597595E0,1.700897964E1,1.299103500E1,2.201272009E1
3.115181250E0,-4.679119720E0,1.748813324E1,1.292891418E1,2.224602858E1
3.125140250E0,-3.713926849E0,1.800321213E1,1.278311737E1,2.239010918E1
3.135099250E0,-2.425256653E0,1.876482834E1,1.248673370E1,2.266978542E1
3.145058250E0,-1.426683197E0,1.944486420E1,1.224753113E1,2.302477334E1
3.155017250E0,-6.713539124E-1,1.980741028E1,1.213571365E1,2.323918596E1
3.164976250E0,-3.626957703E-1,1.991952713E1,1.216310669E1,2.334224226E1
3.174935250E0,-3.517684937E-1,1.996114059E1,1.242491226E1,2.351487443E1
3.184894250E0,-2.680924988E-1,1.986728577E1,1.290256897E1,2.369086751E1
3.194853250E0,-2.664459229E-2,1.947255661E1,1.333427124E1,2.360050763E1
3.204812250E0,2.739303589E-1,1.878219223E1,1.352647156E1,2.314759632E1
3.214771250E0,3.662882996E-1,1.786534882E1,1.341899506E1,2.234668395E1
3.224731250E0,2.932402039E-1,1.686842194E1,1.300166290E1,2.129959827E1
3.234690250E0,4.331991577E-1,1.595726669E1,1.272743317E1,2.041591479E1
3.244649250E0,5.140310669E-1,1.518936356E1,1.260768219E1,1.974676286E1
3.254608250E0,1.122665405E-2,1.444136902E1,1.246038849E1,1.907392321E1
3.264567250E0,-7.098239136E-1,1.362152390E1,1.239287888E1,1.842914024E1
3.274526250E0,-1.291514282E0,1.287248154E1,1.246966919E1,1.796834549E1
3.284485250E0,-1.625020752E0,1.230321533E1,1.282024017E1,1.784287976E1
3.294444250E0,-1.728605347E0,1.185055664E1,1.341390564E1,1.798211983E1
3.304403250E0,-1.764081573E0,1.139086258E1,1.385788239E1,1.802511133E1
3.314362250E0,-1.602717133E0,1.089374634E1,1.416309769E1,1.793978115E1
3.324321250E0,-1.464704132E0,1.027448410E1,1.429901505E1,1.766839588E1
3.334280250E0,-1.456620941E0,9.613309021E0,1.412552582E1,1.714840910E1
3.344239250E0,-1.332978058E0,9.110504608E0,1.365565292E1,1.646982032E1
3.354198250E0,-1.142574005E0,8.712482300E0,1.325912750E1,1.590651707E1
3.364157250E0,-9.128018188E-1,8.190517731E0,1.304641983E1,1.543135957E1
3.374116250E0,-6.761439514E-1,7.620802460E0,1.295241531E1,1.504323314E1
3.384075250E0,-5.078938293E-1,7.019203491E0,1.278162048E1,1.459099023E1
3.394035250E0,-3.486250305E-1,6.408473511E0,1.242401413E1,1.398378344E1
3.403994250E0,-3.665876770E-1,5.866001587E0,1.195384186E1,1.332061171E1
3.413953250E0,-5.325924683E-1,5.337151337E0,1.140598114E1,1.260417569E1
3.423912250E0,-6.415658569E-1,4.906945953E0,1.069750443E1,1.178670125E1
3.433871250E0,-5.950126648E-1,4.444557495E0,1.006985962E1,1.102316670E1
3.443830250E0,-3.580554199E-1,3.963607635E0,9.605824585E0,1.039760814E1
3.453789250E0,-1.508862305E-1,3.359763336E0,9.126371613E0,9.726326909E0
3.463748375E0,-9.235794067E-2,2.724933472E0,8.492888947E0,8.919806897E0
3.473707375E0,-9.325607300E-2,2.125879211E0,7.720944214E0,8.008810066E0
3.483666375E0,-1.242416382E-1,1.565744019E0,6.883884888E0,7.060797509E0
3.493625375E0,-2.110610962E-1,1.030906219E0,5.949527893E0,6.041870287E0
3.503584375E0,-1.052311707E-1,7.015910339E-1,4.905748444E0,4.956780343E0
3.513543375E0,4.655319214E-2,4.731660461E-1,3.911665649E0,3.940454474E0
3.523502375E0,2.610571289E-1,2.600093079E-1,3.012036438E0,3.034488288E0
3.533461375E0,4.905299377E-1,2.290237427E-2,2.347119141E0,2.397939198E0
3.543420375E0,7.092251587E-1,-2.794688416E-1,1.895508270E0,2.043050357E0
3.553379375E0,8.482859802E-1,-5.303471375E-1,1.467398529E0,1.775983005E0
3.563339375E0,9.340576172E-1,-7.173083496E-1,1.013242950E0,1.553594599E0
3.573298375E0,1.022373962E0,-8.376580811E-1,5.908213806E-1,1.447753254E0
3.583257375E0,1.118174744E0,-9.375004578E-1,2.558180237E-1,1.481440085E0
3.593216375E0,1.219514008E0,-1.050066376E0,-3.532653809E-2,1.609689962E0
3.603175375E0,1.197659454E0,-1.243763580E0,-3.465293884E-1,1.761084504E0
3.613134375E0,1.043480072E0,-1.432221680E0,-6.361770630E-1,1.882772120E0
3.623093375E0,8.783734131E-1,-1.506766663E0,-9.461824036E-1,1.984224475E0
3.633052375E0,8.161029053E-1,-1.520388336E0,-1.065184937E0,2.027861828E0
3.643011375E0,9.864486694E-1,-1.318308563E0,-9.885443115E-1,1.920478665E0
3.652970375E0,1.298250275E0,-9.583071899E-1,-8.334667969E-1,1.816169967E0
3.662929375E0,1.815424805E0,-6.246510315E-1,-7.155120850E-1,2.048881079E0
3.672888375E0,2.420316925E0,-2.851570129E-1,-5.143304443E-1,2.490739719E0
3.682847375E0,2.827619934E0,-5.688171387E-3,-3.400927734E-1,2.848004554E0
3.692806375E0,3.121309204E0,2.571652222E-1,-1.213975525E-1,3.134237142E0
3.702765375E0,3.197800140E0,4.047583008E-1,9.699829102E-2,3.224773432E0
3.712724375E0,2.919079742E0,3.760180664E-1,3.347039795E-1,2.962168611E0
3.722683375E0,2.472857666E0,4.312532043E-1,7.442523193E-1,2.618189427E0
3.732642375E0,1.981878662E0,5.899232483E-1,1.092128906E0,2.338503371E0
3.742602375E0,1.524579620E0,8.665480042E-1,1.366508331E0,2.223194432E0
3.752561375E0,1.445094910E0,1.175355835E0,1.770967255E0,2.570230662E0
3.762520375E0,1.419647827E0,1.284179535E0,2.096689911E0,2.839124093E0
3.772479375E0,1.409918060E0,1.240171051E0,2.248474274E0,2.929424812E0
3.782438375E0,1.698368225E0,1.381926270E0,2.509232025E0,3.330228250E0
3.792397375E0,1.653162231E0,2.056124268E0,2.705324249E0,3.778805587E0
3.802356375E0,1.534309387E0,3.127446442E0,2.855162659E0,4.504107053E0
3.812315375E0,1.784289551E0,4.330794067E0,3.061583405E0,5.595780499E0
3.822274375E0,2.356699219E0,5.572312317E0,3.728895721E0,7.106993673E0
3.832233375E0,2.947969666E0,6.587800598E0,5.013674011E0,8.787864869E0
3.842192375E0,3.035088501E0,7.297624512E0,6.695726166E0,1.035856335E1
3.852151375E0,2.329605560E0,7.987689514E0,7.986192627E0,1.153297527E1
3.862110375E0,1.160237274E0,8.954828339E0,8.183931427E0,1.218654318E1
3.872069375E0,2.260299683E-1,1.026056305E1,7.620353394E0,1.278280210E1
3.882028375E0,-3.475772095E-1,1.180026123E1,7.382797394E0,1.392381673E1
3.891987375E0,-9.053173828E-1,1.290316772E1,7.619155884E0,1.501209090E1
3.901946375E0,-1.642684021E0,1.367690872E1,8.361312561E0,1.611421083E1
3.911905375E0,-2.765948181E0,1.413615372E1,9.397308197E0,1.719856717E1
3.921865375E0,-4.172872467E0,1.430829575E1,1.016206787E1,1.803906359E1
3.931824375E0,-5.913003845E0,1.469374420E1,1.034992722E1,1.892064287E1
3.941783375E0,-7.244934082E0,1.556163940E1,9.880204010E0,1.980586080E1
3.951742375E0,-7.933951263E0,1.659688660E1,9.381291504E0,2.064976653E1
3.961701375E0,-7.835605774E0,1.759980103E1,9.654922485E0,2.154918194E1
3.971660375E0,-7.119794312E0,1.836441101E1,1.057236465E1,2.235437222E1
3.981619375E0,-6.121520233E0,1.882141068E1,1.183169586E1,2.305878437E1
3.991578375E0,-5.125641174E0,1.915132462E1,1.279569122E1,2.359608327E1
4.001537375E0,-4.145629120E0,1.938917999E1,1.277533356E1,2.358676937E1
4.011496375E0,-3.467838593E0,1.953063583E1,1.172002808E1,2.303976343E1
4.021455375E0,-2.406994629E0,1.986459137E1,1.037791901E1,2.254100300E1
4.031414375E0,-1.159788208E0,2.006173141E1,1.042776535E1,2.263970994E1
4.041373375E0,-4.619393921E-1,2.035646851E1,1.105136856E1,2.316747602E1
4.051332375E0,8.262817383E-2,2.060659836E1,1.183304306E1,2.376256786E1
4.061291375E0,4.658312988E-1,2.058369598E1,1.246592697E1,2.406875307E1
4.071250375E0,6.239025879E-1,1.999736526E1,1.240186020E1,2.353911656E1
4.081209375E0,5.819897461E-1,1.917781952E1,1.204036194E1,2.265166195E1
4.091168375E0,3.394940186E-1,1.822310486E1,1.152258865E1,2.156309013E1
4.101127375E0,4.131408691E-2,1.722977051E1,1.106978027E1,2.047942221E1
4.111087375E0,-2.487826538E-1,1.633897293E1,1.091290649E1,1.964982080E1
4.121046375E0,-5.026547241E-1,1.553155197E1,1.081171692E1,1.893079478E1
4.131005375E0,-5.945635986E-1,1.486154526E1,1.064122147E1,1.828810071E1
4.140964375E0,-5.089416504E-1,1.431997147E1,1.040411453E1,1.770780064E1
4.150923375E0,-3.659889221E-1,1.384216507E1,1.017524048E1,1.718356775E1
4.160882375E0,-1.465452576E-1,1.340627151E1,1.005204666E1,1.675688615E1
4.170841375E0,-7.319778442E-2,1.298055679E1,9.834099884E0,1.628526122E1
4.180800375E0,-1.525328064E-1,1.263223114E1,9.575288086E0,1.585189805E1
4.190759375E0,-2.712359619E-1,1.231069977E1,9.383536835E0,1.548152645E1
4.200718375E0,-3.623963928E-1,1.191073151E1,9.238638153E0,1.507810635E1
4.210677375E0,-5.391787720E-1,1.153621033E1,9.233548737E0,1.478625324E1
4.220636375E0,-6.595285034E-1,1.110316086E1,9.282347260E0,1.448713669E1
4.230595375E0,-6.887178040E-1,1.053045181E1,9.164991302E0,1.397718903E1
4.240554375E0,-8.220904541E-1,9.865235138E0,8.908873901E0,1.331791017E1
4.250513375E0,-9.373507690E-1,9.359736328E0,8.517587585E0,1.268986166E1
4.260472375E0,-8.858578491E-1,8.879385223E0,8.158334656E0,1.209076716E1
4.270431375E0,-9.394464111E-1,8.234526215E0,7.766599274E0,1.135825893E1
4.280390375E0,-9.987231445E-1,7.465575256E0,7.267387390E0,1.046647894E1
4.290350375E0,-1.014889526E0,6.741231537E0,6.711742859E0,9.566697214E0
4.300309375E0,-1.071920929E0,6.108796692E0,6.133645020E0,8.722844303E0
4.310268375E0,-1.148860931E0,5.643264771E0,5.423072662E0,7.910501616E0
4.320227375E0,-1.205143890E0,5.231620789E0,4.777315521E0,7.186443589E0
4.330186375E0,-1.225052490E0,4.773722992E0,4.247716827E0,6.506326387E0
4.340145375E0,-1.207538910E0,4.251459045E0,3.794758759E0,5.825225169E0
4.350104375E0,-1.118324432E0,3.739822998E0,3.502266998E0,5.244311177E0
4.360063375E0,-9.877958679E-1,3.253334656E0,3.270848236E0,4.717878256E0
4.370022375E0,-8.229885864E-1,2.822829895E0,3.034040680E0,4.225054044E0
4.379981375E0,-6.902146912E-1,2.385888519E0,2.600093079E0,3.595739752E0
4.389940375E0,-5.066963196E-1,2.008822632E0,1.920506287E0,2.824969721E0
4.399899375E0,-2.710862732E-1,1.652413788E0,1.193168793E0,2.056115479E0
4.409858375E0,3.652404785E-2,1.293609924E0,5.655239868E-1,1.412295303E0
4.419817375E0,3.848497009E-1,9.369017029E-1,8.891510010E-2,1.016759553E0
4.429776375E0,8.009843445E-1,5.822891235E-1,-3.649411011E-1,1.055376023E0
4.439735375E0,1.231489105E0,2.966830444E-1,-8.235873413E-1,1.510921028E0
4.449694375E0,1.584305420E0,4.625381470E-2,-1.421593781E0,2.129105905E0
4.459653375E0,1.993404694E0,-1.758842468E-1,-2.079326019E0,2.885861091E0
4.469611750E0,2.502945099E0,-3.359014893E-1,-2.579585724E0,3.609962117E0
4.479571750E0,2.795736237E0,-3.891906738E-1,-2.945724335E0,4.079816459E0
4.489530750E0,2.910547485E0,-4.394860840E-1,-3.199596405E0,4.347626000E0
4.499489750E0,3.021466827E0,-4.782554626E-1,-3.207380219E0,4.432299397E0
4.509448750E0,2.939736786E0,-4.885839844E-1,-3.177891541E0,4.356576790E0
4.519407750E0,2.777623901E0,-5.463638306E-1,-3.178639984E0,4.256460986E0
4.529366750E0,2.610122223E0,-6.138734436E-1,-3.266357574E0,4.225952014E0
4.539325750E0,2.502795410E0,-6.381230164E-1,-3.413202209E0,4.280319517E0
4.549284750E0,2.424957275E0,-6.345304871E-1,-3.511697388E0,4.314517965E0
4.559243750E0,2.427501984E0,-5.643264771E-1,-3.538192291E0,4.327821039E0
4.569202750E0,2.521955566E0,-4.894821167E-1,-3.500021667E0,4.341659164E0
4.579161750E0,2.686912537E0,-3.330574036E-1,-3.247347107E0,4.227965166E0
4.589120750E0,2.612217865E0,-1.070274353E-1,-2.843187561E0,3.862493049E0
4.599079750E0,2.524500275E0,2.481838989E-1,-2.308948517E0,3.430151620E0
4.609038750E0,2.385738831E0,5.893244934E-1,-1.694176941E0,2.984843151E0
4.618997750E0,1.964215393E0,7.382647705E-1,-1.334325256E0,2.486684715E0
4.628956750E0,1.549427948E0,9.386979675E-1,-8.816665649E-1,2.014749804E0
4.638915750E0,9.894424438E-1,1.161434784E0,-3.489244080E-1,1.565143875E0
4.648875750E0,4.168830872E-1,1.436712341E0,3.135978699E-1,1.528488627E0
4.658834750E0,-2.374063110E-1,1.966460724E0,7.367678833E-1,2.113328287E0
4.668793750E0,-6.553372192E-1,3.008593597E0,8.481362915E-1,3.193812373E0
4.678752750E0,-8.108638000E-1,4.120331726E0,7.400610352E-1,4.264073636E0
4.688711750E0,-5.926176453E-1,4.959037628E0,7.845185852E-1,5.055563201E0
4.698670750E0,-1.005908203E-1,5.477110291E0,1.141825562E0,5.595768156E0
4.708629750E0,3.739224243E-1,5.796096954E0,1.706152039E0,6.053553722E0
4.718588750E0,6.108796692E-1,5.847739563E0,2.160756683E0,6.264032360E0
4.728547750E0,7.140151978E-2,5.982010345E0,2.496957550E0,6.482618526E0
4.738506750E0,-1.008303223E0,6.635251923E0,2.002086639E0,7.003684343E0
4.748465750E0,-1.622326355E0,7.970924377E0,1.101259918E0,8.208553566E0
4.758424750E0,-1.715732117E0,9.258846130E0,9.616003418E-1,9.465444711E0
4.768383750E0,-1.510359192E0,1.035142410E1,1.909429321E0,1.063386506E1
4.778342750E0,-1.299896851E0,1.129790588E1,3.539988556E0,1.191066447E1
4.788301750E0,-1.263971558E0,1.205173828E1,5.048701172E0,1.312750560E1
4.798260750E0,-2.186203766E0,1.300884796E1,5.153333588E0,1.416214882E1
4.808220750E0,-3.085383911E0,1.457743607E1,4.240082703E0,1.549191846E1
4.818179750E0,-3.377276917E0,1.632909348E1,3.447780304E0,1.702740386E1
4.828138750E0,-3.063679047E0,1.802342010E1,3.366199951E0,1.858927389E1
4.838097750E0,-2.283501434E0,1.958871506E1,4.490511932E0,2.022614234E1
4.848056750E0,-1.294208679E0,2.090477829E1,6.345903625E0,2.188504568E1
4.858015750E0,-3.703298950E-1,2.184123093E1,8.059390411E0,2.328369143E1
4.867974750E0,1.749861145E-1,2.251048920E1,8.711135101E0,2.413786691E1
4.877933750E0,6.821315002E-1,2.342299164E1,7.821684723E0,2.470385785E1
4.887892750E0,1.128503265E0,2.448548218E1,6.334826660E0,2.531683997E1
4.897851750E0,1.393452301E0,2.536175995E1,5.905369720E0,2.607746093E1
4.907810750E0,1.607207794E0,2.587085129E1,6.471342773E0,2.671633097E1
4.917769750E0,1.891316986E0,2.611484390E1,7.194938049E0,2.715380794E1
4.927728750E0,2.263592834E0,2.574451401E1,7.844736786E0,2.700821633E1
4.937687750E0,2.609224091E0,2.496628235E1,8.131091309E0,2.638632128E1
4.947646750E0,2.834954681E0,2.397175049E1,7.872728577E0,2.539018796E1
4.957606750E0,3.034938812E0,2.292782135E1,7.203619995E0,2.422370712E1
4.967565750E0,3.316802673E0,2.188703568E1,6.564748535E0,2.308981234E1
4.977524750E0,3.346740417E0,2.072440338E1,6.137087860E0,2.187156634E1
4.987483750E0,3.302731934E0,1.959634918E1,5.938001862E0,2.074089693E1
4.997442750E0,3.199147339E0,1.863160538E1,5.811814270E0,1.977747324E1
5.007401750E0,2.934946747E0,1.776775177E1,5.575156403E0,1.885177138E1
5.017360750E0,2.525697784E0,1.699161575E1,5.353766785E0,1.799324801E1
5.027319750E0,2.139500885E0,1.620994125E1,5.214556274E0,1.716191297E1
5.037278750E0,1.689536591E0,1.546988022E1,5.106031952E0,1.637813451E1
5.047237750E0,1.275048523E0,1.481843491E1,4.989125061E0,1.568767448E1
5.057196750E0,8.246351624E-1,1.422312286E1,4.882995758E0,1.506057418E1
5.067155750E0,4.131408691E-1,1.362317047E1,4.881648560E0,1.447729090E1
5.077114750E0,3.637435913E-2,1.293235703E1,4.912634125E0,1.383405781E1
5.087073750E0,-3.104544067E-1,1.209664490E1,4.843328247E0,1.303391838E1
5.097032750E0,-5.917195129E-1,1.119776413E1,4.812642059E0,1.220252339E1
5.106992750E0,-9.840536499E-1,1.041354492E1,4.622836761E0,1.143594767E1
5.116951750E0,-1.284478912E0,9.756860504E0,4.218527527E0,1.070710920E1
5.126910750E0,-1.429377594E0,9.143585815E0,3.814367981E0,1.000987937E1
5.136869750E0,-1.545685730E0,8.525221710E0,3.407663727E0,9.310248206E0
5.146828750E0,-1.514251099E0,7.835905151E0,3.084635468E0,8.556245783E0
5.156787750E0,-1.538350983E0,7.089108124E0,2.802472229E0,7.776620624E0
5.166746750E0,-1.633702698E0,6.282285919E0,2.425406342E0,6.929552424E0
5.176705750E0,-1.707648926E0,5.496270447E0,1.914518738E0,6.065511988E0
5.186664750E0,-1.801952820E0,4.768334198E0,1.293609924E0,5.259037139E0
5.196623750E0,-1.811083832E0,4.132905579E0,8.240364075E-1,4.586934616E0
5.206582750E0,-1.660197601E0,3.598666534E0,5.819897461E-1,4.005667106E0
5.216541750E0,-1.328936462E0,3.113226013E0,5.014572144E-1,3.421945012E0
5.226500750E0,-9.972262573E-1,2.706821136E0,4.677772522E-1,2.922354604E0
5.236459750E0,-6.080355835E-1,2.360291748E0,3.835025024E-1,2.467338359E0
5.246418750E0,-2.439926147E-1,1.999691620E0,2.272274780E-1,2.027296549E0
5.256377750E0,1.124162292E-1,1.691931610E0,-1.856140137E-2,1.695763694E0
5.266337750E0,3.793112183E-1,1.376687164E0,-3.170407104E-1,1.462757451E0
5.276296750E0,5.810916138E-1,1.077609100E0,-6.286926270E-1,1.376286037E0
5.286255750E0,6.535409546E-1,7.581733704E-1,-1.106948090E0,1.492406349E0
5.296214750E0,7.409591675E-1,5.513035583E-1,-1.654659119E0,1.894954591E0
5.306173750E0,8.551716614E-1,4.152365112E-1,-2.079176331E0,2.286200810E0
5.316132750E0,9.559121704E-1,2.335144043E-1,-2.472857666E0,2.661451125E0
5.326091750E0,1.079704742E0,7.589218140E-2,-2.904559937E0,3.099675851E0
5.336050750E0,1.353335724E0,-1.010398865E-1,-3.305725708E0,3.573450587E0
5.346009750E0,1.694775696E0,-3.388952637E-1,-3.496728516E0,3.900541625E0
5.355968750E0,1.879042511E0,-6.057902527E-1,-3.636537781E0,4.137896763E0
5.365927750E0,1.923350372E0,-8.695417786E-1,-3.867657166E0,4.406149284E0
5.375886750E0,1.861977997E0,-1.132993927E0,-4.089645538E0,4.634203052E0
5.385845750E0,1.690883789E0,-1.322948914E0,-4.355043640E0,4.855480092E0
5.395804750E0,1.540296936E0,-1.464704132E0,-4.646786957E0,5.109843625E0
5.405763750E0,1.404828644E0,-1.553020477E0,-4.916675720E0,5.344073003E0
5.415722750E0,1.292861481E0,-1.662442932E0,-5.231620789E0,5.639597804E0
5.425682750E0,1.217418365E0,-1.781295776E0,-5.611381073E0,6.011881541E0
5.435641750E0,1.224753113E0,-1.973047028E0,-5.867947540E0,6.310764066E0
5.445600750E0,1.264270935E0,-2.035167847E0,-5.800288239E0,6.275638040E0
5.455559750E0,1.193019104E0,-2.010020142E0,-5.467829590E0,5.946480974E0
5.465519125E0,1.048719177E0,-1.949246521E0,-4.978646851E0,5.448513410E0
5.475478125E0,8.527766418E-1,-1.692680054E0,-4.167034607E0,4.577834770E0
5.485437125E0,5.192701721E-1,-1.286724243E0,-3.144960022E0,3.437451720E0
5.495396125E0,1.303788757E-1,-7.557783508E-1,-2.151176605E0,2.283803922E0
5.505355125E0,-2.782713318E-1,-3.173400879E-2,-1.291364594E0,1.321387337E0
5.515314125E0,-3.641926575E-1,7.295828247E-1,-2.908451843E-1,8.657472559E-1
5.525273125E0,-3.743714905E-1,1.400487671E0,9.695338440E-1,1.743994152E0
5.535232125E0,-6.646179199E-1,2.487227783E0,2.611918488E0,3.667442871E0
5.545191125E0,-1.090632019E0,4.246669006E0,4.375101929E0,6.193964218E0
5.555150125E0,-1.556463318E0,6.057902527E0,5.585634613E0,8.385706596E0
5.565109125E0,-1.653461609E0,7.766748962E0,6.158643036E0,1.004913970E1
5.575068125E0,-1.458566895E0,9.137298889E0,6.155798950E0,1.111357319E1
5.585028125E0,-1.093176727E0,1.037791901E1,6.481072540E0,1.228415807E1
5.594987125E0,-8.048762512E-1,1.157662628E1,7.161258087E0,1.363633819E1
5.604946125E0,-6.213578796E-1,1.268342468E1,7.427853699E0,1.471150427E1
5.614905125E0,1.270857239E-1,1.347123642E1,6.775510254E0,1.507971819E1
5.624864125E0,9.553134155E-1,1.431233734E1,5.686075745E0,1.543007068E1
5.634823125E0,1.498234406E0,1.499267258E1,4.703518982E0,1.578442359E1
5.644782125E0,1.535656586E0,1.584874237E1,4.728217621E0,1.661014502E1
5.654741125E0,8.753796387E-1,1.656874512E1,5.662724304E0,1.753157297E1
5.664700125E0,-1.166075134E-1,1.683564011E1,6.830146637E0,1.816874454E1
5.674659125E0,-8.282276917E-1,1.669538177E1,7.691006470E0,1.840036180E1
5.684618125E0,-1.219663696E0,1.653716080E1,8.195906525E0,1.849697679E1
5.694577125E0,-8.592132568E-1,1.649030823E1,8.240962830E0,1.845486335E1
5.704536125E0,-3.173400879E-1,1.641067383E1,8.014334106E0,1.826582797E1
5.714495125E0,2.691403198E-1,1.629840729E1,7.919281769E0,1.812251474E1
5.724454125E0,8.804690552E-1,1.575503723E1,8.052205353E0,1.771537284E1
5.734414125E0,1.028960266E0,1.483175720E1,8.380622406E0,1.706676926E1
5.744373125E0,8.210426331E-1,1.390578278E1,8.929081879E0,1.654609950E1
5.754332125E0,3.818559265E-1,1.305135956E1,9.907447357E0,1.639028107E1
5.764291125E0,1.673519897E-1,1.204440353E1,1.050710037E1,1.598420537E1
5.774250125E0,1.357676697E-1,1.099837875E1,1.059032730E1,1.526885066E1
5.784209125E0,4.415817261E-2,1.014964371E1,1.028765671E1,1.445175069E1
5.794168125E0,6.706054688E-2,9.272168427E0,9.886191559E0,1.355412808E1
5.804127125E0,3.097059631E-1,8.133785706E0,9.663903809E0,1.263508704E1
5.814086125E0,7.482939148E-1,7.038513336E0,9.621392212E0,1.194453021E1
5.824045125E0,3.415896606E-1,6.899003448E0,1.026310776E1,1.237110799E1
5.834004125E0,-1.218017120E0,6.847809906E0,1.028975235E1,1.241994644E1
5.843963125E0,-1.410217438E0,5.957910461E0,1.035381912E1,1.202859014E1
5.853922125E0,-6.550378418E-1,4.746030579E0,9.758207703E0,1.087090145E1
5.863881125E0,-7.807763672E-1,3.840114441E0,9.715995483E0,1.047648123E1
5.873841125E0,-1.855391693E0,2.153871002E0,1.335088669E1,1.365019465E1
5.883800125E0,-1.331481171E0,2.046095123E0,1.472188568E1,1.492291075E1
5.893759125E0,1.079854431E0,3.322341156E0,1.583961136E1,1.622027510E1
5.903718125E0,2.275867310E0,4.889282684E0,1.417881500E1,1.516982044E1
5.913677125E0,1.262474670E0,5.454956360E0,1.044423111E1,1.185041580E1
5.923636125E0,-3.311114502E-1,4.940775604E0,7.910599823E0,9.332657067E0
5.933595125E0,-7.141648865E-1,4.674629059E0,7.513475647E0,8.877753354E0
5.943554125E0,-3.285667419E-1,5.112618256E0,8.245154114E0,9.707182284E0
5.953513125E0,3.617976379E-1,5.615572357E0,1.007015900E1,1.153575540E1
5.963472125E0,2.252366180E0,5.861660614E0,1.115630035E1,1.280215826E1
5.973431125E0,4.363126831E0,5.511538696E0,1.104044128E1,1.308836423E1
5.983390125E0,5.115312653E0,5.097050629E0,1.048719177E1,1.273293132E1
5.993349125E0,4.561614075E0,4.762795715E0,1.018721558E1,1.213556374E1
6.003308125E0,3.528163147E0,4.510121155E0,1.004351440E1,1.156119845E1
6.013268125E0,2.515219574E0,4.421206055E0,9.710457001E0,1.096204213E1
6.023227125E0,1.714833984E0,4.509971466E0,9.182654572E0,1.037312119E1
6.033186125E0,1.132844238E0,4.566553802E0,8.720565491E0,9.908835057E0
6.043145125E0,7.948471069E-1,4.502187653E0,8.278834076E0,9.457302429E0
6.053104125E0,6.396199036E-1,4.400848389E0,8.015531616E0,9.166533001E0
6.063063125E0,5.938151550E-1,4.467609558E0,8.017327881E0,9.197265787E0
6.073022125E0,6.144721985E-1,4.706812134E0,8.413254547E0,9.659943510E0
6.082981125E0,7.834707642E-1,5.063520355E0,8.861721954E0,1.023636561E1
6.092940125E0,1.105750580E0,5.180277557E0,8.873247986E0,1.033404518E1
6.102899125E0,1.156794434E0,4.767286377E0,8.564290466E0,9.869765142E0
6.112858125E0,9.496252441E-1,4.458328857E0,8.439450073E0,9.591809102E0
6.122817125E0,7.743397522E-1,4.503534851E0,8.791967010E0,9.908587796E0
6.132776125E0,6.092330933E-1,4.601580963E0,9.394164734E0,1.047836072E1
6.142736125E0,7.301815796E-1,4.597389679E0,9.873767395E0,1.091606337E1
6.152695125E0,9.069639587E-1,4.476441193E0,1.000773880E1,1.100072476E1
6.162654125E0,8.198451233E-1,4.357288971E0,9.930200043E0,1.087506258E1
6.172613125E0,9.011260986E-1,4.341421967E0,9.616003418E0,1.058902709E1
6.182572125E0,1.004261627E0,4.344266052E0,9.138197021E0,1.016798081E1
6.192531125E0,9.101074219E-1,4.334386597E0,8.743318176E0,9.801061954E0
6.202490125E0,8.934919739E-1,4.380191345E0,8.484656067E0,9.590296799E0
6.212449125E0,9.000782776E-1,4.509522400E0,8.422984314E0,9.596488834E0
6.222408125E0,8.310717773E-1,4.600832520E0,8.425379333E0,9.635629564E0
6.232367125E0,8.155041504E-1,4.604574738E0,8.433013458E0,9.642762650E0
6.242326125E0,8.050259399E-1,4.572691040E0,8.387358398E0,9.586727858E0
6.252285125E0,7.472460938E-1,4.569697266E0,8.483458557E0,9.664863109E0
6.262244125E0,6.887178040E-1,4.651427307E0,8.538394318E0,9.747527160E0
6.272203125E0,6.282435608E-1,4.691394196E0,8.569080505E0,9.789433598E0
6.282163125E0,7.339237976E-1,4.727768555E0,8.555758209E0,9.802624046E0
6.292122125E0,8.863069153E-1,4.741090851E0,8.507109375E0,9.779283835E0
6.302081125E0,8.367599487E-1,4.703069916E0,8.481063538E0,9.733831341E0
6.312040125E0,7.491920471E-1,4.667593689E0,8.448431396E0,9.681100796E0
6.321999125E0,7.201524353E-1,4.630770264E0,8.387657776E0,9.608093241E0
6.331958125E0,7.086264038E-1,4.608017578E0,8.391849060E0,9.599953543E0
6.341917125E0,6.487509155E-1,4.638853455E0,8.457861786E0,9.668260708E0
6.351876125E0,6.406677246E-1,4.692891083E0,8.417745209E0,9.658784408E0
6.361835125E0,6.548881531E-1,4.716841278E0,8.440946960E0,9.691597171E0
6.371794125E0,6.342311096E-1,4.683311005E0,8.359067230E0,9.602585903E0
6.381753125E0,5.539979553E-1,4.747527466E0,7.379504242E0,8.792213238E0
6.391712125E0,6.849755859E-1,4.662953339E0,8.208929443E0,9.465666802E0
6.401671125E0,5.378315735E-1,4.625381470E0,8.665330353E0,9.837243855E0
6.411631125E0,3.909869385E-1,4.792284393E0,9.117240601E0,1.030742144E1
6.421590125E0,4.073030090E-1,4.701573029E0,9.357191620E0,1.047987212E1
6.431549125E0,5.228627014E-1,4.690346375E0,9.151818695E0,1.029701510E1
6.441508125E0,4.818479919E-1,4.776118011E0,8.974437561E0,1.017762302E1