"Time (s)","Acceleration x (m/s^2)","Acceleration y (m/s^2)","Acceleration z (m/s^2)","Absolute acceleration (m/s^2)"
5.537500023E-3,-8.822653198E-1,4.424948273E0,8.848399658E0,9.932408360E0
1.549650001E-2,-7.601193237E-1,4.475692749E0,8.664881287E0,9.782115041E0
2.545550000E-2,-6.159690857E-1,4.456682281E0,8.567284241E0,9.676765686E0
3.541450005E-2,-4.882846069E-1,4.464765472E0,8.538244629E0,9.647495733E0
4.537350003E-2,-4.845423889E-1,4.519850922E0,8.472531281E0,9.614968538E0
5.533250002E-2,-4.584965515E-1,4.536466370E0,8.455616455E0,9.606622499E0
6.529150001E-2,-3.667373657E-1,4.429289246E0,8.680299225E0,9.751958478E0
7.525050000E-2,-2.338137817E-1,4.337679749E0,8.964707794E0,9.961732797E0
8.521049999E-2,-1.835183716E-1,4.273014221E0,9.283245392E0,1.022110437E1
9.516950004E-2,-3.122506714E-1,4.182153168E0,9.635313263E0,1.050843315E1
1.051285000E-1,-5.257067871E-1,4.197271729E0,9.897867279E0,1.076388565E1
1.150875000E-1,-4.764591980E-1,4.321962433E0,9.995763702E0,1.090053506E1
1.250465000E-1,-3.607498169E-1,4.369413757E0,1.022029678E1,1.112098842E1
1.350055000E-1,-6.342311096E-1,4.336482239E0,1.032492920E1,1.121657213E1
1.449645000E-1,-1.236877899E0,3.890409851E0,1.039992325E1,1.117244643E1
1.549235000E-1,-1.187929688E0,4.338128815E0,1.021820114E1,1.116432591E1
1.648835000E-1,-1.282682648E0,4.988825684E0,9.867779846E0,1.113134024E1
1.748425000E-1,-1.753154297E0,5.003046112E0,9.541308746E0,1.091515428E1
1.848015000E-1,-2.070045319E0,5.211861877E0,9.361981659E0,1.091307896E1
1.947605000E-1,-2.498005371E0,5.428012390E0,9.396859131E0,1.113572229E1
2.047195000E-1,-2.935395813E0,5.451962585E0,8.628357239E0,1.062021625E1
2.146785000E-1,-3.240611115E0,5.147196350E0,4.796026611E0,7.745777038E0
2.246375000E-1,-1.998943176E0,6.545438690E0,2.041305084E0,7.141811249E0
2.345965000E-1,-2.544558563E0,6.793772278E0,5.062023468E0,8.846140494E0
2.445565000E-1,-4.083807678E0,5.910758514E0,5.205724640E0,8.872097858E0
2.545155000E-1,-4.302652588E0,6.370602264E0,6.497987366E0,1.006584484E1
2.644745000E-1,-3.800596619E0,6.699767761E0,8.115224304E0,1.118875722E1
2.744335000E-1,-3.887715454E0,6.482569427E0,9.615404663E0,1.223086443E1
2.843925000E-1,-4.786745911E0,6.806795197E0,1.076396622E1,1.360545354E1
2.943515000E-1,-4.992867279E0,7.404651947E0,1.097996704E1,1.415334838E1
3.043106667E-1,-6.237828369E0,9.235195312E0,1.066202820E1,1.542329992E1
3.142696667E-1,-7.861651611E0,1.160147461E1,1.153710846E1,1.815226297E1
3.242296667E-1,-4.932542725E0,1.300675232E1,1.306064026E1,1.908103529E1
3.341886667E-1,-2.606080627E-1,1.393781616E1,1.265378632E1,1.882681450E1
3.441476667E-1,2.727328491E0,1.620245682E1,1.147723297E1,2.004207585E1
3.541066667E-1,3.099604340E0,1.824915070E1,1.156135803E1,2.182439112E1
3.640656667E-1,2.458487549E0,1.880554367E1,1.352317841E1,2.329311031E1
3.740246667E-1,2.251018982E0,1.819062241E1,1.528651154E1,2.386720061E1
3.839836667E-1,2.022444305E0,1.778526535E1,1.390443558E1,2.266581729E1
3.939436667E-1,1.551972656E0,1.923335403E1,1.351569397E1,2.355853370E1
4.039026667E-1,1.735491028E0,1.819196960E1,1.409004959E1,2.307572718E1
4.138616667E-1,1.755998383E0,1.690898758E1,1.371777374E1,2.184432896E1
4.238206667E-1,2.745889893E0,1.680959427E1,1.273536667E1,2.126715625E1
4.337796667E-1,1.950294342E0,1.579201035E1,1.175849808E1,1.978518425E1
4.437386667E-1,9.134005737E-1,1.473056763E1,1.178184952E1,1.888480610E1
4.536976667E-1,3.814068604E-1,1.358949051E1,1.164892593E1,1.790299413E1
4.636566667E-1,-9.984237671E-2,1.229528183E1,1.083566711E1,1.638888665E1
4.736166667E-1,-3.207829285E-1,1.090332642E1,1.014395554E1,1.489581359E1
4.835756667E-1,-6.447093201E-1,9.457632751E0,9.321116638E0,1.329457343E1
4.935346667E-1,-9.825567627E-1,8.068521423E0,8.470735016E0,1.173966812E1
5.034936667E-1,-4.550537109E-2,6.470444641E0,7.604187012E0,9.984607388E0
5.134526667E-1,2.607577515E-1,5.123994598E0,6.260131989E0,8.093983430E0
5.234116667E-1,-7.641609192E-1,4.204456787E0,4.864434357E0,6.474883813E0
5.333706667E-1,-1.914668427E0,3.360960846E0,4.024830322E0,5.582228239E0
5.433306667E-1,-2.429897003E0,2.224823456E0,3.328478394E0,4.683268866E0
5.532896667E-1,-2.696342926E0,1.130149841E0,2.537074127E0,3.870949362E0
5.632486667E-1,-2.611020355E0,7.978408813E-2,1.758094025E0,3.148759660E0
5.732076667E-1,-2.616259460E0,-8.436456299E-1,9.776170349E-1,2.917582318E0
5.831666667E-1,-2.705623627E0,-1.634451141E0,-1.133143616E-1,3.163015948E0
5.931256667E-1,-2.339634705E0,-2.204615479E0,-1.304836578E0,3.469411831E0
6.030846667E-1,-2.001936951E0,-2.694995728E0,-2.394570465E0,4.123678120E0
6.130446667E-1,-1.787433014E0,-3.166664886E0,-3.194806366E0,4.840399880E0
6.230036667E-1,-1.459165649E0,-3.479065247E0,-3.709585876E0,5.290943844E0
6.329626667E-1,-1.166823578E0,-3.701502686E0,-4.021387482E0,5.588752694E0
6.429216667E-1,-1.077758789E0,-3.802692261E0,-4.220623169E0,5.782360450E0
6.528806667E-1,-1.082698517E0,-3.861968994E0,-4.232149200E0,5.830791322E0
6.628396667E-1,-1.064436493E0,-3.773502960E0,-4.072131958E0,5.652840730E0
6.727986667E-1,-8.487350464E-1,-3.447331238E0,-3.544628906E0,5.016855382E0
6.827576667E-1,-4.674778748E-1,-3.032394104E0,-3.129991150E0,4.383011997E0
6.927176667E-1,4.715194702E-2,-2.656974792E0,-3.029999084E0,4.030214983E0
7.026766667E-1,3.266207886E-1,-2.285447388E0,-3.007845154E0,3.791712459E0
7.126356667E-1,4.336482239E-1,-2.074236603E0,-2.997067566E0,3.670547951E0
7.225946667E-1,6.830296326E-1,-2.096989288E0,-2.855462036E0,3.607985171E0
7.325536667E-1,6.403683472E-1,-2.058818665E0,-2.840493164E0,3.566119365E0
7.425126667E-1,4.119433594E-1,-1.932930450E0,-2.678380280E0,3.328609076E0
7.524716667E-1,1.257385254E-2,-1.695673828E0,-2.314636688E0,2.869322365E0
7.624316667E-1,-4.334985352E-1,-1.294058990E0,-2.124981079E0,2.525480991E0
7.723906667E-1,-8.342152405E-1,-1.086141357E0,-2.246827698E0,2.631321497E0
7.823496667E-1,-9.789642334E-1,-1.128952332E0,-1.903890839E0,2.420269543E0
7.923086667E-1,-7.030879211E-1,-1.134939880E0,-1.223405914E0,1.810840465E0
8.022676667E-1,-6.239025879E-1,-1.198258209E0,-8.869056702E-1,1.616068947E0
8.122266667E-1,-7.217990112E-1,-9.327104187E-1,-3.323089600E-1,1.225304771E0
8.221856667E-1,-8.987310791E-1,-5.539979553E-1,2.029779053E-1,1.075095957E0
8.321446667E-1,-8.955876160E-1,-3.864962769E-1,9.904902649E-1,1.390153774E0
8.421046667E-1,-1.018931122E0,8.397537231E-2,1.557810516E0,1.863342722E0
8.520636667E-1,-1.006357269E0,1.147364044E0,1.734443207E0,2.310301374E0
8.620226667E-1,-5.837860107E-1,2.576891327E0,1.590592346E0,3.084016704E0
8.719816667E-1,-1.582209778E-1,4.169429626E0,1.721270599E0,4.513529635E0
8.819406667E-1,-8.053253174E-2,5.651797028E0,2.237696686E0,6.079192511E0
8.918996667E-1,-3.287164307E-1,7.379204865E0,3.750450897E0,8.284117385E0
9.018586667E-1,-1.003962250E0,9.291777649E0,4.569697266E0,1.040323052E1
9.118186667E-1,-1.261426849E0,1.092398346E1,3.729195099E0,1.161169705E1
9.217776667E-1,4.331991577E-1,1.259406052E1,2.643353119E0,1.287576551E1
9.317366667E-1,-1.456471252E-1,1.462907867E1,3.397784271E0,1.501919085E1
9.416956667E-1,-3.140768738E0,1.709460159E1,5.251080322E0,1.815664276E1
9.516546667E-1,-4.913831635E0,2.108455444E1,6.791377258E0,2.268979908E1
9.616136667E-1,-5.371879120E0,2.424463303E1,7.615862732E0,2.597423110E1
9.715726667E-1,-5.111121368E0,2.670806030E1,8.883576508E0,2.860702673E1
9.815326667E-1,-5.515729980E0,2.869742340E1,1.047177383E1,3.104228462E1
9.914916667E-1,-5.906118164E0,3.029609894E1,1.170535858E1,3.301138080E1
1.001450667E0,-6.013744354E0,3.144795364E1,1.289882675E1,3.451838121E1
1.011409667E0,-5.441334686E0,3.209266296E1,1.369008133E1,3.531239819E1
1.021368667E0,-4.411925354E0,3.244892212E1,1.394185776E1,3.559175508E1
1.031327667E0,-3.825894012E0,3.212724106E1,1.415127228E1,3.531367427E1
1.041286667E0,-3.069067841E0,3.130634811E1,1.391281815E1,3.439582996E1
1.051246667E0,-2.554737396E0,3.001333694E1,1.338591385E1,3.296224761E1
1.061205667E0,-2.596201172E0,2.790527069E1,1.249242188E1,3.068395341E1
1.071164667E0,-2.932402039E0,2.585992401E1,1.187839874E1,2.860823323E1
1.081123667E0,-3.688928833E0,2.376173721E1,1.107307343E1,2.647340753E1
1.091082667E0,-3.768114166E0,2.154799072E1,1.031594788E1,2.418539578E1
1.101041667E0,-3.307372284E0,1.969229965E1,9.713301086E0,2.220526053E1
1.111000667E0,-3.051703949E0,1.807057205E1,9.057963867E0,2.044272929E1
1.120960667E0,-2.923121338E0,1.664613419E1,8.813971252E0,1.906107318E1
1.130919667E0,-2.980601807E0,1.499836075E1,8.297395477E0,1.739774652E1
1.140878667E0,-2.861748962E0,1.322634567E1,7.875572662E0,1.565728175E1
1.150837667E0,-2.798280945E0,1.162288010E1,7.567213898E0,1.414865521E1
1.160796667E0,-2.917283478E0,1.011476624E1,7.178472290E0,1.274164445E1
1.170755667E0,-2.996618500E0,8.799900513E0,6.832391968E0,1.153687789E1
1.180714667E0,-2.949017487E0,7.482190704E0,6.546037445E0,1.036969084E1
1.190674667E0,-2.814597015E0,6.106102295E0,6.204298096E0,9.148757099E0
1.200633667E0,-2.611619110E0,4.692292328E0,5.689518585E0,7.823604246E0
1.210592667E0,-2.901266785E0,3.247796173E0,5.049150238E0,6.667791768E0
1.220551667E0,-3.267704773E0,1.825304260E0,4.185596008E0,5.615055126E0
1.230510667E0,-2.969524841E0,5.990542603E-1,3.385958862E0,4.543309499E0
1.240469667E0,-2.333347778E0,-2.878514099E-1,2.577490082E0,3.488671009E0
1.250428667E0,-1.940414886E0,-9.395960999E-1,1.661544800E0,2.721907766E0
1.260388667E0,-1.803300018E0,-1.665885773E0,5.402265930E-1,2.513744445E0
1.270347667E0,-1.458866272E0,-2.501148834E0,-6.056405640E-1,2.958181330E0
1.280306667E0,-1.322200470E0,-3.241958313E0,-1.499282227E0,3.808720911E0
1.290265667E0,-1.080752563E0,-4.043391724E0,-2.400558014E0,4.824906373E0
1.300224667E0,-1.028511200E0,-5.010680237E0,-2.891387329E0,5.875786961E0
1.310183500E0,-7.973918152E-1,-5.057383118E0,-3.459456024E0,6.179060907E0
1.320142500E0,1.439257050E0,-2.296374664E0,-3.401975555E0,4.349509758E0
1.330101500E0,3.449726257E0,-1.330882416E0,-3.563789062E0,5.135411545E0
1.340061500E0,2.851719818E0,-3.583098907E0,-3.814517670E0,5.959987312E0
1.350020500E0,1.400637360E0,-4.337080994E0,-3.485651550E0,5.737754203E0
1.359979500E0,-8.649014282E-1,-6.055806885E0,-4.521497498E0,7.606891029E0
1.369938500E0,-2.810705109E0,-6.260131989E0,-4.928800507E0,8.448809985E0
1.379897500E0,-2.517165527E0,-5.342240753E0,-5.252277832E0,7.903295577E0
1.389856500E0,-1.652713165E0,-4.717589722E0,-5.402265930E0,7.360135241E0
1.399815500E0,-9.142987061E-1,-4.560566254E0,-5.046306152E0,6.862937597E0
1.409775500E0,-4.805007935E-2,-4.297263794E0,-5.334157562E0,6.849965097E0
1.419734500E0,5.846841431E-1,-4.029470673E0,-5.873785400E0,7.147016467E0
1.429693500E0,5.008584595E-1,-4.135599976E0,-5.740562439E0,7.092820558E0
1.439652500E0,-6.357279968E-1,-3.903732147E0,-4.888833618E0,6.288399551E0
1.449611500E0,-1.011596375E0,-3.646566925E0,-3.437002716E0,5.112119446E0
1.459570500E0,-1.292113037E0,-3.507506104E0,-2.313588867E0,4.396003709E0
1.469529500E0,-1.501078491E0,-3.028951263E0,-2.077978821E0,3.968095056E0
1.479489500E0,-1.495540009E0,-2.606829071E0,-1.786534882E0,3.496270099E0
1.489448500E0,-1.235830078E0,-2.503094788E0,-1.187480621E0,3.033623201E0
1.499407500E0,-1.206640778E0,-2.441273346E0,-5.025050354E-1,2.769171144E0
1.509366500E0,-1.882185974E0,-2.220931549E0,3.168910217E-1,2.928409279E0
1.519325500E0,-2.750230865E0,-1.479074249E0,1.426832886E0,3.433261209E0
1.529284500E0,-3.351829834E0,-2.173480225E-1,2.959645386E0,4.476773862E0
1.539243500E0,-3.515738983E0,1.056502991E0,4.198169861E0,5.576849411E0
1.549202500E0,-3.152145081E0,2.422861633E0,4.841082916E0,6.264372347E0
1.559162500E0,-2.327509918E0,4.322710876E0,5.365292816E0,7.272516672E0
1.569121500E0,-1.922452240E0,6.394253082E0,5.339246979E0,8.549260400E0
1.579080500E0,-1.754202118E0,8.427924042E0,4.942122803E0,9.926313844E0
1.589039500E0,-1.409768372E0,1.046713348E1,5.107678528E0,1.173186729E1
1.598998500E0,-1.014141083E0,1.202150116E1,5.360053711E0,1.320133130E1
1.608957500E0,-1.222358093E0,1.387479721E1,5.426964569E0,1.494844813E1
1.618916500E0,-9.234297180E-1,1.589409805E1,5.820945282E0,1.695165123E1
1.628876500E0,-6.926097107E-1,1.783735703E1,6.779252472E0,1.909474477E1
1.638835500E0,-9.708810425E-1,2.004406815E1,7.430548096E0,2.139907294E1
1.648794500E0,-1.471889191E0,2.226170654E1,7.746690674E0,2.361696959E1
1.658753500E0,-1.522783356E0,2.396127228E1,8.357270966E0,2.542253757E1
1.668712500E0,-1.169368286E0,2.511192947E1,8.560398560E0,2.655667237E1
1.678671500E0,-9.382489014E-1,2.629836227E1,8.550968170E0,2.766953606E1
1.688630500E0,-8.425978088E-1,2.751443344E1,8.202792206E0,2.872350638E1
1.698590500E0,-7.312294006E-1,2.844983826E1,7.941735077E0,2.954655901E1
1.708549500E0,-6.313870239E-1,2.911715057E1,8.280630341E0,3.027830818E1
1.718508500E0,-7.557783508E-1,2.969060806E1,8.883576508E0,3.100034419E1
1.728467500E0,-9.193881226E-1,2.989972321E1,9.513915710E0,3.139033792E1
1.738426500E0,-1.033151550E0,2.951622070E1,1.021924896E1,3.125232369E1
1.748385500E0,-1.037941589E0,2.865640869E1,1.073522598E1,3.061882034E1
1.758344500E0,-1.038690033E0,2.749781799E1,1.067145859E1,2.951421522E1
1.768304500E0,-1.050964508E0,2.622456573E1,1.024110352E1,2.817290499E1
1.778263500E0,-1.049766998E0,2.493664398E1,9.815837860E0,2.681956183E1
1.788222500E0,-1.076261902E0,2.334470444E1,9.453890533E0,2.520931596E1
1.798181500E0,-1.281185760E0,2.156819870E1,9.536219330E0,2.361711479E1
1.808140500E0,-1.743574219E0,1.977567627E1,9.673783264E0,2.208391962E1
1.818099500E0,-2.109263763E0,1.824510910E1,9.095086670E0,2.049520923E1
1.828058500E0,-2.543660431E0,1.704789871E1,8.233927460E0,1.910231976E1
1.838018500E0,-2.883304138E0,1.572854233E1,7.636968842E0,1.772071611E1
1.847977500E0,-3.058589630E0,1.455812622E1,7.585176544E0,1.669817094E1
1.857936500E0,-3.262765045E0,1.319206696E1,7.656727753E0,1.559813278E1
1.867895500E0,-3.295097809E0,1.160656403E1,7.537126465E0,1.422597179E1
1.877854500E0,-3.228037262E0,9.735604706E0,6.971303101E0,1.240166483E1
1.887813500E0,-3.077450409E0,7.822283478E0,5.911057892E0,1.027615810E1
1.897772500E0,-3.158132629E0,6.151457977E0,4.574636993E0,8.291051838E0
1.907731500E0,-3.378923492E0,4.617747345E0,3.401975555E0,6.656887575E0
1.917691500E0,-3.419339447E0,3.540287933E0,2.852468262E0,5.688769295E0
1.927650500E0,-3.151546326E0,2.594554596E0,2.274819489E0,4.673196069E0
1.937609500E0,-2.863844604E0,1.817969513E0,1.643731842E0,3.769412877E0
1.947568500E0,-2.380499725E0,1.250200195E0,7.273374939E-1,2.785462134E0
1.957527500E0,-1.802102509E0,7.999365234E-1,-7.484436035E-3,1.971681493E0
1.967486500E0,-1.207987976E0,3.188369751E-1,-5.432203674E-1,1.362343692E0
1.977445500E0,-7.641609192E-1,-1.930984497E-1,-1.194366302E0,1.430992588E0
1.987405500E0,-5.060975647E-1,-8.550219727E-1,-1.880988464E0,2.127278760E0
1.997364500E0,-5.774990845E-1,-1.530118103E0,-2.344424744E0,2.858512547E0
2.007323500E0,-7.411088562E-1,-2.076931000E0,-2.686313782E0,3.475509524E0
2.017282500E0,-8.436456299E-1,-2.504441986E0,-3.032394104E0,4.022360204E0
2.027241500E0,-7.518864441E-1,-2.776127014E0,-3.416495361E0,4.465943907E0
2.037200500E0,-5.215155029E-1,-2.931054840E0,-3.654650116E0,4.713759473E0
2.047159500E0,-3.845503235E-1,-2.953059082E0,-3.816763000E0,4.841086314E0
2.057118500E0,-3.372486877E-1,-2.922672272E0,-4.044738922E0,5.001566038E0
2.067078500E0,-1.140628052E-1,-2.878663788E0,-4.080514526E0,4.995028962E0
2.077037500E0,2.163002014E-1,-2.776276703E0,-3.971241760E0,4.850284448E0
2.086996500E0,5.737568665E-1,-2.674338684E0,-3.938160553E0,4.794829807E0
2.096955500E0,7.608677673E-1,-2.568209381E0,-4.036506042E0,4.844378207E0
2.106914500E0,7.238946533E-1,-2.515069885E0,-4.103716278E0,4.867246376E0
2.116873500E0,4.917274475E-1,-2.615061951E0,-4.020339661E0,4.821148813E0
2.126832500E0,2.739303589E-1,-2.786754913E0,-3.879931641E0,4.784862623E0
2.136792500E0,3.607498169E-2,-2.911744995E0,-4.107907562E0,5.035321724E0
2.146751500E0,-9.026229858E-2,-2.812201996E0,-4.455933838E0,5.269912117E0
2.156710500E0,-1.194515991E-1,-2.674787750E0,-4.296814728E0,5.062743821E0
2.166669500E0,5.987548828E-3,-2.492766266E0,-3.884571991E0,4.615606034E0
2.176628500E0,-1.005908203E-1,-2.289189606E0,-3.805536346E0,4.442140751E0
2.186587500E0,-1.187031555E-1,-2.202968903E0,-3.389850769E0,4.044533429E0
2.196546500E0,-3.342549133E-1,-2.257156219E0,-2.814597015E0,3.623318493E0
2.206505500E0,-9.142987061E-1,-2.193239136E0,-2.305805054E0,3.311038655E0
2.216465500E0,-1.216520233E0,-1.685644684E0,-1.094673615E0,2.349389240E0
2.226424500E0,-1.496887207E0,-1.112336884E0,-3.902384949E-1,1.905321688E0
2.236383500E0,-1.912123718E0,-6.703060913E-1,2.065704346E-1,2.036712723E0
2.246342500E0,-2.367027740E0,-1.068777466E-1,1.080602875E0,2.604216917E0
2.256301500E0,-2.720143433E0,7.441026306E-1,1.763931885E0,3.326307970E0
2.266260500E0,-2.583926697E0,1.691632233E0,2.127974854E0,3.750543129E0
2.276219500E0,-2.259850616E0,2.644251251E0,2.753224640E0,4.436128425E0
2.286179500E0,-2.232906647E0,3.954027557E0,4.059109039E0,6.090695544E0
2.296138500E0,-2.503394165E0,5.669609985E0,5.228477325E0,8.108540860E0
2.306097292E0,-2.640059967E0,7.715405731E0,5.761818237E0,9.984786008E0
2.316056292E0,-2.432741089E0,9.683513031E0,5.791905670E0,1.154273906E1
2.326015292E0,-2.038460999E0,1.144774429E1,5.749693451E0,1.297170565E1
2.335974292E0,-1.801503754E0,1.306722656E1,5.424868927E0,1.426278475E1
2.345933292E0,-1.737137604E0,1.481873428E1,5.567971344E0,1.592528925E1
2.355892292E0,-1.542991333E0,1.671484131E1,5.914949799E0,1.779756650E1
2.365852292E0,-1.676513672E0,1.881557281E1,5.436993713E0,1.965699313E1
2.375811292E0,-2.233206024E0,2.069281906E1,4.960085449E0,2.139585047E1
2.385770292E0,-2.074236603E0,2.241633499E1,5.479205933E0,2.316929497E1
2.395729292E0,-1.959724731E0,2.389855270E1,5.863606567E0,2.468528356E1
2.405688292E0,-2.096390533E0,2.523617111E1,6.291566620E0,2.609296833E1
2.415647292E0,-2.330653381E0,2.658681244E1,6.504274292E0,2.746991309E1
2.425606292E0,-2.244881744E0,2.786724976E1,6.596632233E0,2.872522689E1
2.435566292E0,-1.895657959E0,2.906880112E1,7.043453064E0,2.996996744E1
2.445525292E0,-1.380878448E0,2.984104523E1,7.703580322E0,3.085028290E1
2.455484292E0,-1.185983734E0,3.002306671E1,8.390052795E0,3.119589842E1
2.465443292E0,-1.116528168E0,2.977278717E1,8.943901062E0,3.110721552E1
2.475402292E0,-6.809339905E-1,2.904829376E1,9.157806244E0,3.046526640E1
2.485361292E0,-2.715353394E-1,2.783656357E1,9.237141266E0,2.933040711E1
2.495320292E0,-2.083666992E-1,2.627336426E1,9.212592316E0,2.784250246E1
2.505279292E0,-1.926493835E-1,2.471839783E1,9.010213165E0,2.631007880E1
2.515239292E0,-2.995271301E-1,2.323168945E1,8.662186890E0,2.479585839E1
2.525198292E0,-6.295907593E-1,2.174557983E1,8.416248322E0,2.332594827E1
2.535157292E0,-1.038839722E0,2.032608170E1,8.353528748E0,2.200023244E1
2.545116292E0,-1.524878998E0,1.897499130E1,8.192763062E0,2.072430741E1
2.555075292E0,-2.014959869E0,1.767060379E1,8.057594147E0,1.952524328E1
2.565034292E0,-2.370171204E0,1.654359741E1,8.135282593E0,1.858739223E1
2.574993292E0,-2.457439728E0,1.545476166E1,8.183931427E0,1.765971125E1
2.584953292E0,-2.288141785E0,1.422851166E1,8.140821075E0,1.655171002E1
2.594912292E0,-1.829196167E0,1.299881882E1,8.016729126E0,1.538126117E1
2.604871292E0,-1.723964996E0,1.158560760E1,7.887996826E0,1.412157402E1
2.614830292E0,-1.861828308E0,1.014320709E1,7.521558838E0,1.276420394E1
2.624789292E0,-2.092947693E0,8.712931366E0,6.673272858E0,1.117265294E1
2.634748292E0,-2.397564240E0,7.248227234E0,5.794450378E0,9.584402303E0
2.644707292E0,-2.605332184E0,5.814508667E0,5.069807281E0,8.142432849E0
2.654667292E0,-2.771786041E0,4.508324890E0,4.189338226E0,6.749692285E0
2.664626292E0,-2.610870667E0,3.361260223E0,3.144211578E0,5.291576549E0
2.674585292E0,-2.273921356E0,2.301464081E0,2.087708588E0,3.850452233E0
2.684544292E0,-2.085014191E0,1.379531250E0,1.297950897E0,2.816925128E0
2.694503292E0,-1.987716522E0,5.566923523E-1,4.971162415E-1,2.123216406E0
2.704462292E0,-1.936522980E0,-9.265731812E-2,-5.239105225E-2,1.939446171E0
2.714421292E0,-1.995650024E0,-7.065307617E-1,-4.626878357E-1,2.166999024E0
2.724380292E0,-2.082170105E0,-1.232087860E0,-1.092577972E0,2.654656186E0
2.734340292E0,-2.114802246E0,-1.703008575E0,-1.693278809E0,3.199971855E0
2.744299292E0,-2.082768860E0,-2.142943726E0,-2.096240845E0,3.650254733E0
2.754258292E0,-1.972298584E0,-2.612217865E0,-2.642005920E0,4.206404541E0
2.764217292E0,-1.742227020E0,-2.972668304E0,-3.245401154E0,4.733364605E0
2.774176292E0,-1.438957672E0,-3.262765045E0,-3.758983154E0,5.181330840E0
2.784135292E0,-1.062789917E0,-3.482957153E0,-4.126169586E0,5.503252529E0
2.794094292E0,-7.997868347E-1,-3.697610779E0,-4.402944031E0,5.804989284E0
2.804053292E0,-7.054829407E-1,-3.791615295E0,-4.607418823E0,6.008524023E0
2.814013292E0,-6.339317322E-1,-3.741619263E0,-4.767585754E0,6.093558736E0
2.823972292E0,-5.252577209E-1,-3.714076538E0,-4.850064240E0,6.131344333E0
2.833931292E0,-4.671784973E-1,-3.671265564E0,-4.785099335E0,6.049266256E0
2.843890292E0,-3.941304016E-1,-3.548670502E0,-4.681365051E0,5.887578437E0
2.853849292E0,-2.745291138E-1,-3.406316528E0,-4.508624268E0,5.657389090E0
2.863808292E0,-1.377136230E-1,-3.246748352E0,-4.360282745E0,5.438051629E0
2.873767292E0,5.074447632E-2,-3.071612549E0,-4.219126282E0,5.219042559E0
2.883726292E0,2.344125366E-1,-2.924019470E0,-4.145329742E0,5.078247510E0
2.893686292E0,3.073109436E-1,-2.790347443E0,-4.080664215E0,4.953009116E0
2.903645292E0,3.290158081E-1,-2.613565063E0,-3.921844482E0,4.724387567E0
2.913604292E0,2.592608643E-1,-2.444865875E0,-3.736529846E0,4.472833625E0
2.923563292E0,-1.601669312E-2,-2.392774200E0,-3.535348206E0,4.268994243E0
2.933522292E0,-3.266207886E-1,-2.424957275E0,-3.018173676E0,3.885417772E0
2.943481292E0,-6.583309937E-1,-2.346071320E0,-2.435285797E0,3.445006132E0
2.953440292E0,-8.126600647E-1,-2.156565399E0,-2.034269714E0,3.073994791E0
2.963400292E0,-8.565188599E-1,-1.978735199E0,-1.357826385E0,2.548079677E0
2.973359292E0,-9.087602234E-1,-1.617835693E0,-5.152285767E-1,1.925798006E0
2.983318292E0,-1.115031281E0,-1.150507507E0,-2.694396973E-2,1.602400780E0
2.993277292E0,-1.279090118E0,-2.844085693E-1,7.897576904E-1,1.529927114E0
3.003236292E0,-1.398990784E0,9.032217407E-1,2.307751007E0,2.845821399E0
3.013195292E0,-2.070045319E0,2.200573883E0,3.894601135E0,4.929049709E0
3.023154292E0,-2.839744720E0,3.792363739E0,5.392985229E0,7.178472156E0
3.033113292E0,-2.692900085E0,5.733976135E0,5.855373688E0,8.626447369E0
3.043073292E0,-1.674268341E0,7.743247833E0,5.807323608E0,9.822732256E0
3.053032292E0,-8.171507263E-1,9.658664703E0,6.456673279E0,1.164672353E1
3.062991292E0,-6.161187744E-1,1.140223892E1,6.894662476E0,1.333892895E1
3.072950292E0,-8.467890930E-1,1.332244583E1,6.568640442E0,1.487789138E1
3.082909292E0,-1.555415497E0,1.519205795E1,6.085744629E0,1.643941087E1
3.092868292E0,-2.070644073E0,1.720432343E1,6.457721100E0,1.849265998E1
3.102827292E0,-2.152673492E0,1.953347992E1,7.532935181E0,2.104604365E1
3.112786292E0,-2.083068237E0,2.214165619E1,8.532706146E0,2.382014245E1
3.122746292E0,-1.427581329E0,2.486449402E1,9.486372986E0,2.665093476E1
3.132705292E0,-7.346722412E-1,2.729424133E1,1.067490143E1,2.931669957E1
3.142664292E0,-3.427871704E-1,2.933090607E1,1.120809265E1,3.140128810E1
3.152623292E0,-7.798782349E-2,3.095862122E1,1.147304169E1,3.301625350E1
3.162582292E0,-1.398092651E-1,3.208233444E1,1.157707535E1,3.410754174E1
3.172541292E0,-1.010398865E-1,3.271761337E1,1.143217667E1,3.465756912E1
3.182500292E0,-5.194198608E-2,3.255535080E1,1.125464584E1,3.444590856E1
3.192460292E0,-1.701960754E-1,3.168565933E1,1.119521942E1,3.360569761E1
3.202419292E0,-1.675016785E-1,3.044414108E1,1.090632019E1,3.233916516E1
3.212378292E0,-2.248324585E-1,2.877945282E1,1.030292496E1,3.056890114E1
3.222337292E0,-2.498304749E-1,2.676733704E1,9.646390228E0,2.845356905E1
3.232296292E0,-1.453477478E-1,2.478515900E1,8.901988220E0,2.633572909E1
3.242255292E0,-2.363584900E-1,2.292003754E1,8.180338898E0,2.433725396E1
3.252214292E0,-3.740721130E-1,2.111913254E1,7.695197754E0,2.248051951E1
3.262173292E0,-5.915698242E-1,1.955862762E1,7.181765442E0,2.084388698E1
3.272133292E0,-1.051263885E0,1.807341614E1,6.939269714E0,1.938832099E1
3.282092292E0,-1.486708374E0,1.674597656E1,6.901398468E0,1.817325875E1
3.292051292E0,-1.867067413E0,1.564037567E1,6.957681427E0,1.721965803E1
3.302010292E0,-2.164199524E0,1.465482513E1,7.041058044E0,1.640195591E1
3.311969250E0,-2.286046143E0,1.361882950E1,6.984026642E0,1.547498472E1
3.321928250E0,-2.200274506E0,1.244467117E1,7.018904114E0,1.445600441E1
3.331887250E0,-1.916015625E0,1.117022141E1,6.942562866E0,1.329075398E1
3.341846250E0,-1.867815857E0,9.783505096E0,6.830146637E0,1.207711104E1
3.351806250E0,-2.142644348E0,8.327333221E0,6.498436432E0,1.077799051E1
3.361765250E0,-2.464624786E0,6.944957886E0,5.794600067E0,9.374657610E0
3.371724250E0,-2.718347168E0,5.694009247E0,5.098248138E0,8.111922504E0
3.381683250E0,-2.810705109E0,4.534370728E0,4.488266602E0,6.971737100E0
3.391642250E0,-2.741997986E0,3.486998749E0,3.864663391E0,5.883309983E0
3.401601250E0,-2.498604126E0,2.614313507E0,3.045117645E0,4.727620878E0
3.411560250E0,-2.233505402E0,1.822011108E0,2.204465790E0,3.628765668E0
3.421520250E0,-2.022294617E0,1.111289062E0,1.588496704E0,2.801421189E0
3.431479250E0,-1.678160248E0,4.372407532E-1,1.111588440E0,2.059861683E0
3.441438250E0,-1.384021912E0,-3.314108276E-1,7.135661316E-1,1.592019602E0
3.451397250E0,-1.401535492E0,-9.717791748E-1,-2.878514099E-1,1.729599646E0
3.461356250E0,-1.168769531E0,-1.271605682E0,-1.071771240E0,2.032657576E0
3.471315250E0,-6.679110718E-1,-1.598525848E0,-1.757046204E0,2.467509159E0
3.481274250E0,-4.894821167E-2,-2.028431854E0,-2.480192413E0,3.204416659E0
3.491233250E0,4.474195862E-1,-2.369722137E0,-2.994073792E0,3.844508442E0
3.501192250E0,7.179071045E-1,-2.654579773E0,-3.405268707E0,4.376989759E0
3.511152250E0,6.676116943E-1,-2.916834412E0,-3.805835724E0,4.841282260E0
3.521111250E0,5.852828979E-1,-3.086581421E0,-3.993844757E0,5.081371555E0
3.531070250E0,4.525090027E-1,-3.157683563E0,-4.189637604E0,5.265813625E0
3.541029250E0,4.176315308E-1,-3.179388428E0,-4.367916870E0,5.418636789E0
3.550988250E0,4.749623108E-1,-3.245850220E0,-4.516408081E0,5.582031422E0
3.560947250E0,5.560935974E-1,-3.332519989E0,-4.556374969E0,5.672343645E0
3.570906250E0,5.616320801E-1,-3.407214661E0,-4.645140381E0,5.788080122E0
3.580865250E0,4.923262024E-1,-3.417692871E0,-4.696333923E0,5.829113309E0
3.590825250E0,4.019142151E-1,-3.426374817E0,-4.752467194E0,5.872607926E0
3.600784250E0,3.083587646E-1,-3.419938202E0,-4.846771088E0,5.939886565E0
3.610743250E0,1.478924561E-1,-3.453767853E0,-5.022056580E0,6.096838267E0
3.620702250E0,-3.682342529E-2,-3.438948669E0,-5.278922424E0,6.300376646E0
3.630661250E0,-1.538800049E-1,-3.446732483E0,-5.286257172E0,6.312539802E0
3.640620250E0,-2.989283752E-1,-3.492836609E0,-5.114713898E0,6.200771243E0
3.650579250E0,-3.460803223E-1,-3.528312836E0,-4.839586029E0,5.999196279E0
3.660539250E0,-2.627037048E-1,-3.657344513E0,-4.327949982E0,5.672418635E0
3.670498250E0,-1.076261902E-1,-3.777694244E0,-3.885470123E0,5.420280000E0
3.680457250E0,-1.829196167E-1,-3.757635956E0,-3.447929993E0,5.103088163E0
3.690416250E0,-5.454656982E-1,-3.405268707E0,-2.674787750E0,4.364387392E0
3.700375250E0,-9.340576172E-1,-2.755619659E0,-1.622925110E0,3.331634622E0
3.710334250E0,-9.613009644E-1,-1.901046753E0,-3.296145630E-1,2.155626141E0
3.720293250E0,-8.521778870E-1,-8.370593262E-1,9.331594849E-1,1.515804107E0
3.730252250E0,-3.260220337E-1,1.899549866E-1,1.785936127E0,1.825360543E0
3.740211250E0,3.574566650E-1,8.039781189E-1,2.614313507E0,2.758403741E0
3.750171250E0,4.864883423E-1,1.582209778E0,4.181105347E0,4.496854524E0
3.760130250E0,-4.333488464E-1,3.299588470E0,6.685547333E0,7.468039799E0
3.770089250E0,-1.544787598E0,6.573879547E0,8.296197968E0,1.069715671E1
3.780048250E0,-1.095122681E0,1.052266800E1,9.055868225E0,1.392603981E1
3.790007250E0,5.221142578E-1,1.378902557E1,1.042387344E1,1.729355276E1
3.799966250E0,9.830058289E-1,1.584320389E1,1.176493469E1,1.975821597E1
3.809925250E0,-6.435118103E-1,1.730536331E1,1.260603561E1,2.141966014E1
3.819885250E0,-3.100053406E0,1.874791351E1,1.195249466E1,2.244898040E1
3.829844250E0,-4.539460144E0,1.970936417E1,1.025577301E1,2.267700629E1
3.839803250E0,-3.984264679E0,2.039583664E1,9.007818146E0,2.264962042E1
3.849762250E0,-2.829266510E0,2.131178192E1,8.436755676E0,2.309492680E1
3.859721250E0,-2.383343811E0,2.263742523E1,8.117020569E0,2.416649275E1
3.869680250E0,-1.938468933E0,2.427247513E1,8.200995941E0,2.569371606E1
3.879639250E0,-1.126108246E0,2.596081421E1,8.946894836E0,2.748233835E1
3.889598250E0,-1.809736633E-1,2.795481766E1,9.755513306E0,2.960869166E1
3.899558250E0,6.941065979E-1,2.971575577E1,1.116198853E1,3.175055767E1
3.909517250E0,1.002615051E0,3.066148911E1,1.211969696E1,3.298513613E1
3.919476250E0,6.819818115E-1,3.091476242E1,1.260019775E1,3.339090622E1
3.929435250E0,6.436614990E-2,3.036794952E1,1.293864395E1,3.300946847E1
3.939394250E0,-3.153941345E-1,2.939691879E1,1.274823990E1,3.204365660E1
3.949353250E0,-2.421963501E-1,2.813609070E1,1.234003876E1,3.072417314E1
3.959312250E0,1.731898499E-1,2.661151108E1,1.171568710E1,2.907679214E1
3.969271250E0,6.465055847E-1,2.495221161E1,1.081111816E1,2.720130713E1
3.979231250E0,9.376501465E-1,2.309846649E1,1.009605515E1,2.522595234E1
3.989190250E0,9.767189026E-1,2.123139908E1,9.413923645E0,2.324539191E1
3.999149250E0,7.179071045E-1,1.947899323E1,8.821306000E0,2.139537350E1
4.009108250E0,3.761677551E-1,1.790336975E1,8.521778870E0,1.983161279E1
4.019067250E0,2.993774414E-2,1.648506912E1,8.210276642E0,1.841648834E1
4.029026250E0,-4.026626587E-1,1.512903900E1,8.092321930E0,1.716204045E1
4.038985250E0,-8.196954346E-1,1.378363678E1,8.079897766E0,1.599829026E1
4.048944250E0,-1.232985992E0,1.249137405E1,8.015082550E0,1.489282473E1
4.058904250E0,-1.419049072E0,1.129401398E1,7.845784607E0,1.382478890E1
4.068863250E0,-1.493893433E0,1.005773483E1,7.397616577E0,1.257435798E1
4.078822250E0,-1.520687714E0,8.820108490E0,6.832841034E0,1.126030734E1
4.088781250E0,-1.564696198E0,7.611222382E0,6.297254791E0,1.000171976E1
4.098740250E0,-1.656006317E0,6.429729309E0,5.638774109E0,8.710886830E0
4.108699250E0,-1.729653168E0,5.381908264E0,4.923561401E0,7.496538769E0
4.118658250E0,-1.799258423E0,4.457281036E0,4.187092896E0,6.374671131E0
4.128618250E0,-1.799707489E0,3.638932800E0,3.497626648E0,5.358560547E0
4.138577250E0,-1.708846436E0,2.859503632E0,2.973716125E0,4.465412048E0
4.148536250E0,-1.516945496E0,2.216590576E0,2.423161011E0,3.617472419E0
4.158495250E0,-1.116228790E0,1.632804565E0,1.827848969E0,2.693148587E0
4.168454250E0,-8.910969543E-1,1.010698242E0,1.199605408E0,1.804055945E0
4.178413250E0,-8.023315430E-1,4.682263184E-1,6.408174133E-1,1.128547184E0
4.188372250E0,-7.789801025E-1,4.700225830E-2,2.282752991E-1,8.130982872E-1
4.198331250E0,-7.427554321E-1,-3.543132019E-1,-2.832110596E-1,8.703056827E-1
4.208291250E0,-5.882766724E-1,-7.472460938E-1,-9.364526367E-1,1.334687120E0
4.218250250E0,-1.941462708E-1,-1.096769257E0,-1.693727875E0,2.027143234E0
4.228209250E0,2.149530029E-1,-1.483864288E0,-2.182760925E0,2.648113154E0
4.238168250E0,3.406915283E-1,-1.794767761E0,-2.563718719E0,3.148001859E0
4.248127250E0,3.466790771E-1,-1.920057220E0,-2.970572662E0,3.554027019E0
4.258086250E0,2.484832764E-1,-2.008822632E0,-3.374283142E0,3.934831512E0
4.268045250E0,2.270777893E-1,-2.090552673E0,-3.741170197E0,4.291658099E0
4.278004250E0,1.968406677E-1,-2.167043610E0,-3.982019348E0,4.537764025E0
4.287963250E0,1.323248291E-1,-2.241588593E0,-4.295317841E0,4.846853065E0
4.297923250E0,4.385879517E-2,-2.225122833E0,-4.592449951E0,5.103302046E0
4.307882250E0,-8.023315430E-2,-2.252515869E0,-4.819976807E0,5.320943668E0
4.317841292E0,-1.552272034E-1,-2.275118866E0,-5.008883972E0,5.503560664E0
4.327800292E0,-1.212478638E-1,-2.300715637E0,-5.192701721E0,5.680857739E0
4.337759292E0,-2.354603577E-1,-2.260149994E0,-5.494474182E0,5.945836031E0
4.347718292E0,-3.588038635E-1,-2.176923065E0,-5.899831238E0,6.298868381E0
4.357677292E0,-4.523593140E-1,-2.066752167E0,-6.175707550E0,6.528051563E0
4.367636292E0,-4.797523499E-1,-1.986369324E0,-6.271508331E0,6.596032304E0
4.377596292E0,-5.080435181E-1,-1.975891113E0,-6.236930237E0,6.562130194E0
4.387555292E0,-5.327421570E-1,-2.019450531E0,-6.053262177E0,6.403434831E0
4.397514292E0,-3.754193115E-1,-2.147883453E0,-5.635630646E0,6.042737440E0
4.407473292E0,-2.031275940E-1,-2.256557465E0,-5.124443665E0,5.602966650E0
4.417432292E0,-2.698887634E-1,-2.279010773E0,-4.753814392E0,5.278776499E0
4.427391292E0,-5.921685791E-1,-2.163151703E0,-4.187092896E0,4.749909034E0
4.437350292E0,-1.092577972E0,-1.963616638E0,-2.967129822E0,3.722012400E0
4.447309292E0,-1.601070557E0,-1.597328339E0,-1.817370758E0,2.901330940E0
4.457269292E0,-1.873953094E0,-9.485774231E-1,-7.994874573E-1,2.247371692E0
4.467228292E0,-1.731449432E0,-2.471360779E-1,2.374063110E-1,1.765036865E0
4.477187292E0,-1.260229340E0,2.019300842E-1,1.476828918E0,1.951916341E0
4.487146292E0,-5.846841431E-1,8.421487427E-1,2.319277039E0,2.535767346E0
4.497105292E0,2.426454163E-1,1.809287567E0,3.408112793E0,3.866216640E0
4.507064292E0,6.008505249E-1,2.977158966E0,5.153333588E0,5.981750908E0
4.517023292E0,5.016069031E-1,4.480033722E0,6.804549866E0,8.162365497E0
4.526982292E0,2.089654541E-1,6.211932220E0,8.008196869E0,1.013720798E1
4.536942292E0,-4.830455017E-1,8.038583679E0,9.690398712E0,1.259984078E1
4.546901292E0,-1.219813385E0,1.007045837E1,1.094044922E1,1.491963490E1
4.556860292E0,-1.087937622E0,1.212792984E1,1.112621292E1,1.649432946E1
4.566819292E0,-4.002676392E-1,1.382899246E1,1.115645004E1,1.777266509E1
4.576778292E0,1.074765015E-1,1.516182083E1,1.095736404E1,1.870711600E1
4.586737292E0,3.927832031E-1,1.636471939E1,1.105496109E1,1.975273359E1
4.596696292E0,6.048921204E-1,1.759830414E1,1.105600891E1,2.079186226E1
4.606655292E0,4.537065125E-1,1.888023834E1,1.116004257E1,2.193663146E1
4.616615292E0,1.113684082E-1,2.008882507E1,1.231144821E1,2.356151635E1
4.626574292E0,-7.544311523E-1,2.101674545E1,1.304462357E1,2.474742330E1
4.636533292E0,-1.779200134E0,2.192385910E1,1.345716568E1,2.578597408E1
4.646492292E0,-2.206262054E0,2.302422089E1,1.404783737E1,2.706148692E1
4.656451292E0,-1.877246246E0,2.425361435E1,1.474912903E1,2.844817515E1
4.666410292E0,-1.159488831E0,2.559108307E1,1.538844955E1,2.988398110E1
4.676369292E0,-2.305206299E-2,2.680071762E1,1.571042999E1,3.106600404E1
4.686328292E0,1.234482880E0,2.757116547E1,1.570968155E1,3.175668760E1
4.696288292E0,2.018103333E0,2.763388504E1,1.577105392E1,3.188150695E1
4.706247292E0,2.088307343E0,2.696926712E1,1.553125259E1,3.119170088E1
4.716206292E0,1.781744843E0,2.573283829E1,1.516182083E1,2.992046778E1
4.726165292E0,1.602417755E0,2.422607162E1,1.464374817E1,2.835330050E1
4.736124292E0,1.809287567E0,2.274115952E1,1.372301285E1,2.662245179E1
4.746083292E0,2.053579559E0,2.129441803E1,1.281979111E1,2.494025806E1
4.756042292E0,1.931583252E0,1.991413834E1,1.214439560E1,2.340491965E1
4.766001292E0,1.458267517E0,1.873114838E1,1.178050232E1,2.217572318E1
4.775961292E0,8.613088989E-1,1.762569717E1,1.170371201E1,2.117507801E1
4.785920292E0,1.984872437E-1,1.653401733E1,1.174906769E1,2.028432197E1
4.795879292E0,-1.749861145E-1,1.565788925E1,1.194501022E1,1.969475527E1
4.805838292E0,-3.344046021E-1,1.473820175E1,1.183903061E1,1.890738118E1
4.815797292E0,-4.363426208E-1,1.364008530E1,1.168260590E1,1.796456519E1
4.825756292E0,-4.541555786E-1,1.246248413E1,1.146421005E1,1.693953601E1
4.835715292E0,-5.092410278E-1,1.121632553E1,1.086156326E1,1.562174258E1
4.845674292E0,-7.203021240E-1,9.776469727E0,1.024888733E1,1.418230894E1
4.855634292E0,-9.710307312E-1,8.369246063E0,9.466165009E0,1.267262642E1
4.865593292E0,-1.386117554E0,6.969955902E0,8.639883270E0,1.118700988E1
4.875552292E0,-1.674717407E0,5.603746948E0,7.946824493E0,9.867050105E0
4.885511292E0,-1.845512238E0,4.407135315E0,7.014263763E0,8.486969615E0
4.895470292E0,-2.026336212E0,3.291355591E0,6.018235016E0,7.152496961E0
4.905429292E0,-2.143542480E0,2.252216492E0,5.175337830E0,6.037497424E0
4.915388292E0,-2.233206024E0,1.353784790E0,4.146227875E0,4.900117141E0
4.925347292E0,-2.419269104E0,5.355862427E-1,3.116968231E0,3.981859688E0
4.935307292E0,-2.447859650E0,-1.637594604E-1,2.196681976E0,3.293060238E0
4.945266292E0,-2.337539063E0,-7.054829407E-1,1.169817352E0,2.707446710E0
4.955225292E0,-2.167792053E0,-1.157093811E0,3.031196594E-1,2.475897817E0
4.965184292E0,-1.930236053E0,-1.391955414E0,-4.646337891E-1,2.424713520E0
4.975143292E0,-1.450783081E0,-1.447340240E0,-1.467398529E0,2.520480859E0
4.985102292E0,-9.925859070E-1,-1.574126587E0,-2.426005096E0,3.057548368E0
4.995061292E0,-5.706134033E-1,-1.773811340E0,-3.054997101E0,3.578409369E0
5.005020292E0,-1.836680603E-1,-1.990261230E0,-3.610042877E0,4.126412885E0
5.014980292E0,-4.640350342E-3,-2.297721863E0,-4.362827454E0,4.930903637E0
5.024939292E0,1.556762695E-2,-2.537822571E0,-5.128185883E0,5.721807075E0
5.034898292E0,1.092727661E-2,-2.678380280E0,-5.672903137E0,6.273409785E0
5.044857292E0,1.392105103E-2,-2.713257751E0,-6.158942413E0,6.730121327E0
5.054816292E0,3.442840576E-2,-2.690056000E0,-6.722071381E0,7.240430253E0
5.064775292E0,5.433700562E-2,-2.677631836E0,-7.172634430E0,7.656327411E0
5.074734292E0,1.544787598E-1,-2.718796234E0,-7.358098755E0,7.845848197E0
5.084693292E0,3.011737061E-1,-2.678679657E0,-7.589966583E0,8.054416369E0
5.094652292E0,3.882925415E-1,-2.547103271E0,-7.747888184E0,8.165064450E0
5.104612292E0,4.167333984E-1,-2.457888794E0,-7.678582306E0,8.073135096E0
5.114571292E0,3.960763550E-1,-2.414628754E0,-7.518714752E0,7.906856520E0
5.124530292E0,2.833607483E-1,-2.312840424E0,-7.484286346E0,7.838626554E0
5.134489292E0,1.489402771E-1,-2.104024658E0,-7.564669189E0,7.853236461E0
5.144448292E0,9.071136475E-2,-1.886976013E0,-7.486082611E0,7.720773270E0
5.154407292E0,7.050338745E-2,-1.741628265E0,-7.232210541E0,7.439294930E0
5.164366292E0,-2.050735474E-2,-1.618434448E0,-6.704258423E0,6.896871147E0
5.174325292E0,-1.067280579E-1,-1.348845062E0,-5.895340576E0,6.048620867E0
5.184285292E0,-3.682342529E-2,-1.086889801E0,-5.040318604E0,5.156306530E0
5.194244292E0,1.190025330E-1,-8.529263306E-1,-4.274062042E0,4.359960008E0
5.204203292E0,3.008743286E-2,-6.246510315E-1,-3.541635132E0,3.596425110E0
5.214162292E0,-2.694396973E-1,-4.701722717E-1,-2.663112030E0,2.717687510E0
5.224121292E0,-4.758604431E-1,-3.692820740E-1,-1.380878448E0,1.506531679E0
5.234080292E0,-5.577401733E-1,-1.510359192E-1,-2.701881409E-1,6.378774030E-1
5.244039292E0,-5.974076843E-1,1.398092651E-1,5.523513794E-1,8.255510997E-1
5.253998292E0,-5.593867493E-1,4.360432434E-1,1.570983124E0,1.723669116E0
5.263958292E0,-6.433621216E-1,7.421566772E-1,2.912942505E0,3.074076347E0
5.273917292E0,-9.936337280E-1,1.244961090E0,4.649631042E0,4.914906401E0
5.283876292E0,-1.407822418E0,2.138602753E0,6.560257874E0,7.042199164E0
5.293835292E0,-2.237846375E0,3.387306061E0,8.580606537E0,9.492555361E0
5.303794292E0,-3.164419556E0,5.121898956E0,1.042372375E1,1.203750044E1
5.313753792E0,-3.421435089E0,7.295828247E0,1.171912994E1,1.422228303E1
5.323712792E0,-2.149380341E0,9.527986450E0,1.201611237E1,1.548513216E1
5.333671792E0,-2.794688416E-1,1.136436768E1,1.187360870E1,1.643805156E1
5.343631792E0,1.262923737E0,1.280467255E1,1.133098709E1,1.714485007E1
5.353590792E0,1.734592896E0,1.358559860E1,1.026146118E1,1.711358780E1
5.363549792E0,1.203048248E0,1.375025620E1,9.438173218E0,1.672112389E1
5.373508792E0,2.625540161E-1,1.378094238E1,8.751251678E0,1.632690153E1
5.383467792E0,-3.579057312E-1,1.384875137E1,7.796387329E0,1.589653001E1
5.393426792E0,-7.087760925E-1,1.392284729E1,6.763086090E0,1.549475310E1
5.403385792E0,-6.399192810E-1,1.428180084E1,6.440806274E0,1.568002926E1
5.413344792E0,-3.203338623E-1,1.501871841E1,6.812633057E0,1.649474115E1
5.423303792E0,3.221301270E-1,1.658775558E1,7.521558838E0,1.821623590E1
5.433263792E0,1.199605408E0,1.889595566E1,8.465645599E0,2.074037967E1
5.443222792E0,1.685345306E0,2.089459946E1,9.090146942E0,2.284853270E1
5.453181792E0,1.843117218E0,2.237172775E1,9.794881439E0,2.449144720E1
5.463140792E0,1.905986481E0,2.340832214E1,1.017748581E1,2.559616275E1
5.473099792E0,2.113455048E0,2.392145508E1,1.033256332E1,2.614315532E1
5.483058792E0,2.221380615E0,2.398851562E1,1.037402710E1,2.622982753E1
5.493017792E0,2.314487000E0,2.409329773E1,1.037357803E1,2.633353312E1
5.502976792E0,2.336940308E0,2.420810898E1,1.045695465E1,2.647341555E1
5.512936792E0,2.480791168E0,2.421723999E1,1.082024918E1,2.664032338E1
5.522895792E0,2.615810394E0,2.408596298E1,1.139774826E1,2.677470340E1
5.532854792E0,2.682272186E0,2.382460648E1,1.196312256E1,2.679408067E1
5.542813792E0,2.565964050E0,2.331027603E1,1.221609650E1,2.644212839E1
5.552772792E0,2.277364197E0,2.244387772E1,1.227282852E1,2.568143988E1
5.562731792E0,1.948647766E0,2.130923721E1,1.203257812E1,2.454921088E1
5.572690792E0,1.564546509E0,1.999392242E1,1.128413452E1,2.301165860E1
5.582649792E0,1.134790192E0,1.863759293E1,1.051623138E1,2.142985631E1
5.592609792E0,6.695576477E-1,1.734188736E1,9.971663818E0,2.001558003E1
5.602568792E0,2.275268555E-1,1.626412857E1,9.766590271E0,1.897261005E1
5.612527792E0,-1.252894592E-1,1.544503189E1,9.742939453E0,1.826169698E1
5.622486792E0,-4.822970581E-1,1.465302887E1,1.006117767E1,1.778120248E1
5.632445792E0,-6.119274902E-1,1.405412430E1,1.032582733E1,1.745037464E1
5.642404792E0,-5.472619629E-1,1.353724915E1,1.034962784E1,1.704908814E1
5.652363792E0,-5.788462830E-1,1.297965866E1,1.050006500E1,1.670502820E1
5.662322792E0,-7.014413452E-1,1.236144424E1,1.066801575E1,1.634331312E1
5.672282792E0,-1.035247192E0,1.151705017E1,1.052566177E1,1.563661527E1
5.682241792E0,-1.322050781E0,1.041653870E1,1.022029678E1,1.465286876E1
5.692200792E0,-1.569037170E0,9.229357452E0,9.808952179E0,1.355944171E1
5.702159792E0,-1.821711731E0,8.158334656E0,9.213789825E0,1.244069857E1
5.712118792E0,-1.968556366E0,7.320526886E0,8.385113068E0,1.130378031E1
5.722077792E0,-2.078128510E0,6.533463593E0,7.301067352E0,1.001550543E1
5.732036792E0,-2.062111816E0,5.710325317E0,6.402785339E0,8.823592266E0
5.741995792E0,-1.915416870E0,4.893773346E0,5.719905396E0,7.767570861E0
5.751955792E0,-1.840572510E0,4.149071960E0,4.830604706E0,6.628517717E0
5.761914792E0,-1.702559509E0,3.418740692E0,3.969595184E0,5.508555412E0
5.771873792E0,-1.552721100E0,2.666704559E0,3.081941071E0,4.361263210E0
5.781832792E0,-1.372795258E0,2.046394501E0,1.928589478E0,3.129177950E0
5.791791792E0,-1.020128632E0,1.534758453E0,8.593629456E-1,2.033384029E0
5.801750792E0,-7.035369873E-1,1.001716919E0,1.278341675E-1,1.230748818E0
5.811709792E0,-5.093907166E-1,4.775070190E-1,-4.764591980E-1,8.452841077E-1
5.821668792E0,-4.602928162E-1,-2.170486450E-2,-1.315314789E0,1.393697805E0
5.831627792E0,-5.086422729E-1,-3.929328918E-1,-2.090103607E0,2.186697580E0
5.841587792E0,-5.526507568E-1,-6.876699829E-1,-2.904859314E0,3.035872280E0
5.851546792E0,-5.598358154E-1,-1.004860382E0,-3.535348206E0,3.717774531E0
5.861505792E0,-5.278024292E-1,-1.346150665E0,-3.983665924E0,4.237958378E0
5.871464792E0,-4.848417664E-1,-1.598825226E0,-4.516258392E0,4.815381969E0
5.881423792E0,-4.414320374E-1,-1.871258698E0,-5.118605804E0,5.467778044E0
5.891382792E0,-3.676354980E-1,-2.201621704E0,-5.577401733E0,6.007470689E0
5.901341792E0,-2.827619934E-1,-2.479294281E0,-5.989345093E0,6.488382627E0
5.911300792E0,-2.188449097E-1,-2.698139191E0,-6.460116119E0,7.004352109E0
5.921260792E0,-1.556762695E-1,-2.824626160E0,-6.849456482E0,7.410654636E0
5.931219792E0,-9.654922485E-2,-2.924019470E0,-7.196884003E0,7.768806277E0
5.941178792E0,-2.017803955E-1,-3.030897217E0,-7.420968018E0,8.018592120E0
5.951137792E0,-3.275189209E-1,-3.108735352E0,-7.612868958E0,8.229658431E0
5.961096792E0,-5.478607178E-1,-3.181035004E0,-7.705526276E0,8.354296514E0
5.971055792E0,-7.206015015E-1,-3.186573486E0,-7.638166351E0,8.307532866E0
5.981014792E0,-9.081614685E-1,-3.081641693E0,-7.544760590E0,8.200285674E0
5.990973792E0,-1.053808594E0,-2.987786865E0,-7.503745880E0,8.145157159E0
6.000933792E0,-1.157542877E0,-2.832559662E0,-7.456294556E0,8.059753610E0
6.010892792E0,-1.157991943E0,-2.648292847E0,-7.361691284E0,7.908786184E0
6.020851792E0,-1.127754822E0,-2.500999146E0,-7.105424194E0,7.616684360E0
6.030810792E0,-1.067729645E0,-2.339934082E0,-6.796616364E0,7.267002965E0
6.040769792E0,-9.976753235E-1,-2.222877502E0,-6.134692841E0,6.600833030E0
6.050728792E0,-1.120869141E0,-2.025737457E0,-5.400769043E0,5.876075743E0
6.060687792E0,-1.354383545E0,-1.727407837E0,-4.324058075E0,4.849306224E0
6.070646792E0,-1.539099426E0,-1.241069183E0,-3.065175934E0,3.647517411E0
6.080605792E0,-1.616488495E0,-7.247927856E-1,-1.985471191E0,2.660912529E0
6.090565792E0,-1.526974640E0,-2.034269714E-1,-8.550219727E-1,1.761844675E0
6.100524792E0,-1.023122406E0,4.010160828E-1,-4.191284180E-3,1.098913519E0
6.110483792E0,-3.362008667E-1,8.458909607E-1,8.406518555E-1,1.239055318E0
6.120442792E0,-7.634124756E-3,1.211580505E0,2.019151154E0,2.354773234E0
6.130401792E0,1.405577087E-1,2.089055786E0,3.727548523E0,4.275339582E0
6.140360792E0,-1.242416382E-1,3.429368591E0,5.927673340E0,6.849329613E0
6.150319792E0,-8.425978088E-1,4.926106110E0,8.095615082E0,9.513962162E0
6.160278792E0,-1.325044556E0,6.680757294E0,9.776619415E0,1.191513946E1
6.170238792E0,-1.375789032E0,8.025111694E0,1.008393036E1,1.296074321E1
6.180197792E0,-1.698667603E0,8.574169922E0,9.238338776E0,1.271804878E1
6.190156792E0,-4.520599365E-1,8.949738922E0,9.278605042E0,1.289940683E1
6.200115792E0,4.507127380E-1,9.634115753E0,9.060658264E0,1.323309701E1
6.210074792E0,4.932243347E-1,1.039408539E1,8.457113342E0,1.340906587E1
6.220033792E0,4.740641785E-1,1.110121490E1,8.267308044E0,1.384955203E1
6.229992792E0,7.006929016E-1,1.134161499E1,8.717272339E0,1.432180289E1
6.239951792E0,6.494993591E-1,1.145582748E1,9.628277893E0,1.497870381E1
6.249910792E0,5.333409119E-1,1.240889557E1,1.019694534E1,1.606993578E1
6.259870792E0,4.540058899E-1,1.379785721E1,1.013796799E1,1.712791230E1
6.269829792E0,4.409829712E-1,1.485480927E1,1.038181091E1,1.812848097E1
6.279788792E0,5.734574890E-1,1.532632874E1,1.063014450E1,1.866079254E1
6.289747792E0,7.069798279E-1,1.530522263E1,1.071905960E1,1.869887427E1
6.299706792E0,6.515950012E-1,1.484058884E1,1.105271576E1,1.851567387E1
6.309666042E0,1.986369324E-1,1.439571396E1,1.134790192E1,1.833169155E1
6.319625042E0,-2.838098145E-1,1.420171738E1,1.137170242E1,1.819573962E1
6.329584042E0,-5.146298218E-1,1.389740021E1,1.099867813E1,1.773058084E1
6.339544042E0,-6.936575317E-1,1.367645966E1,1.031534912E1,1.714447832E1
6.349503042E0,-4.954696655E-2,1.512619492E1,9.548344116E0,1.788784791E1
6.359462042E0,6.682254181E0,3.315156097E1,9.971963196E0,3.525788658E1
6.369421042E0,6.685247955E0,2.453892105E1,1.248568588E1,2.833272910E1
6.379380042E0,3.176694031E0,8.051157532E0,1.724324249E1,1.929357236E1
6.389339042E0,-1.399888916E0,9.077872467E0,1.221130646E1,1.528016567E1
6.399298042E0,-3.602109375E0,8.766220551E0,6.449188843E0,1.146358807E1
6.409257042E0,-4.299808502E0,8.718170471E0,4.004772034E0,1.051346986E1
6.419217042E0,-4.835544434E0,8.533454590E0,2.175126801E0,1.004656726E1
6.429176042E0,-2.962788849E0,1.003887405E1,2.597099304E0,1.078434211E1
6.439135042E0,-8.024812317E-1,1.066202820E1,3.512445831E0,1.125433681E1
6.449094042E0,1.264869690E-1,9.497449951E0,4.651576996E0,1.057613933E1
6.459053042E0,6.212081909E-2,7.943082275E0,6.157295837E0,1.005030880E1
6.469012042E0,-5.927673340E-2,7.269183655E0,7.436984711E0,1.039967722E1
6.478971042E0,-4.520599365E-1,7.314539337E0,8.599018250E0,1.129822812E1
6.488930042E0,4.420307922E-1,6.152954865E0,9.120683441E0,1.101095415E1
6.498889042E0,1.518592072E0,4.774172058E0,9.279203796E0,1.054525788E1
6.508849042E0,2.944227448E0,4.412224731E0,1.020457947E1,1.150085408E1
6.518808042E0,3.103945312E0,4.344864807E0,1.076082275E1,1.201281120E1
6.528767042E0,2.942431183E0,4.410129089E0,1.035501663E1,1.163329314E1
6.538726042E0,2.822680206E0,4.561464386E0,9.997559967E0,1.134573427E1
6.548685042E0,2.728526001E0,4.722978516E0,1.012943573E1,1.150464464E1
6.558644042E0,2.763253784E0,4.575086060E0,1.034259247E1,1.164200167E1
6.568603042E0,2.575244751E0,4.600682831E0,1.010249176E1,1.139554772E1
6.578562042E0,2.004481659E0,5.518873444E0,9.511371002E0,1.117774974E1
6.588522042E0,2.147733765E0,5.054389343E0,9.176068268E0,1.069391607E1
6.598481042E0,1.942809906E0,4.485422516E0,8.668024750E0,9.951290295E0
6.608440042E0,1.766775970E0,4.700674896E0,8.143964539E0,9.567758369E0
6.618399042E0,1.414857788E0,4.927303619E0,7.808961182E0,9.341307096E0
6.628358042E0,1.009500732E0,5.088368683E0,7.486980743E0,9.108538205E0
6.638317042E0,8.583151245E-1,5.166356506E0,7.012617188E0,8.752413623E0
6.648276042E0,9.295669556E-1,5.222190399E0,6.718927917E0,8.560336422E0
6.658235042E0,1.075214081E0,5.161416779E0,6.861581268E0,8.653184731E0
6.668194042E0,1.412013702E0,4.960085449E0,7.170538788E0,8.832488713E0
6.678154042E0,1.411265259E0,4.915627899E0,7.872129822E0,9.387518053E0
6.688113042E0,1.325942688E0,5.045857086E0,8.699010315E0,1.014354860E1
6.698072042E0,1.427880707E0,4.959486694E0,9.261540527E0,1.060242824E1
6.708031042E0,1.532363434E0,4.750371552E0,9.596244507E0,1.081674980E1
6.717990042E0,1.544188843E0,4.529431000E0,9.647138672E0,1.076882301E1
6.727949042E0,1.705553284E0,4.382586365E0,9.632169800E0,1.071889315E1
6.737908042E0,1.794468384E0,4.208199005E0,9.492360535E0,1.053726550E1
6.747867042E0,1.601369934E0,4.184697876E0,9.372459869E0,1.038841114E1
6.757827042E0,1.386716309E0,4.224215698E0,9.282047882E0,1.029190912E1
6.767786042E0,1.212029572E0,4.320315857E0,9.391470337E0,1.040835529E1
6.777745042E0,1.003064117E0,4.567152557E0,9.692644043E0,1.076161552E1
6.787704042E0,1.070873108E0,4.749772797E0,9.830956421E0,1.097063421E1
6.797663042E0,1.161434784E0,4.812043304E0,9.955647125E0,1.111843520E1
6.807622042E0,1.263522491E0,4.863386536E0,1.016401382E1,1.133826242E1
6.817581042E0,1.194216614E0,4.815785522E0,1.005204666E1,1.120988785E1
6.827540042E0,1.033301239E0,4.693040771E0,9.602681122E0,1.073796200E1
6.837499042E0,8.657995605E-1,4.496948547E0,9.127120056E0,1.021158536E1
6.847459042E0,6.138734436E-1,4.425696716E0,8.793613586E0,9.863633810E0
6.857418042E0,4.638853455E-1,4.464615784E0,8.492290192E0,9.605570072E0
6.867377042E0,4.463717651E-1,4.498894501E0,8.269703064E0,9.424822982E0
6.877336042E0,3.185375977E-1,4.525090027E0,8.186027069E0,9.358896576E0
6.887295042E0,1.902543640E-1,4.589905243E0,8.274792480E0,9.464439627E0
6.897254042E0,1.065783691E-1,4.666545868E0,8.397387543E0,9.607503673E0
6.907213042E0,3.367996216E-2,4.697381744E0,8.477321320E0,9.691826781E0
6.917172042E0,6.646179199E-2,4.676125946E0,8.536747742E0,9.733788216E0
6.927132042E0,2.022294617E-1,4.667294312E0,8.620573425E0,9.805040496E0
6.937091042E0,3.118016052E-1,4.744533691E0,8.576265564E0,9.806128248E0
6.947050042E0,4.390370178E-1,4.764442291E0,7.588320007E0,8.970800655E0
6.957009042E0,5.444178772E-1,4.680167542E0,7.582033081E0,8.926790279E0
6.966968042E0,6.514453125E-1,4.680915985E0,8.243806915E0,9.502405375E0
6.976927042E0,7.420069885E-1,4.764442291E0,8.368048553E0,9.657883894E0
6.986886042E0,8.590635681E-1,4.677772522E0,8.738079071E0,9.948546217E0
6.996845042E0,7.228468323E-1,4.514162750E0,9.119336243E0,1.020110123E1
7.006804042E0,4.331991577E-1,4.384831696E0,9.637109528E0,1.059661694E1
7.016764042E0,2.109114075E-1,4.378095703E0,9.867330780E0,1.079705619E1
7.026723042E0,9.026229858E-2,4.475543060E0,9.444310455E0,1.045148951E1