"Time (s)","Acceleration x (m/s^2)","Acceleration y (m/s^2)","Acceleration z (m/s^2)","Absolute acceleration (m/s^2)"
3.031083383E-3,-5.744903412E0,4.687502289E0,5.804329834E0,9.416307012E0
1.299008337E-2,-5.601052551E0,4.511767731E0,5.617667999E0,9.126118095E0
2.294908336E-2,-5.423072662E0,4.388573914E0,5.645809479E0,8.974656694E0
3.290908335E-2,-5.400918732E0,4.402494965E0,5.941145325E0,9.156915028E0
4.286808334E-2,-5.446424103E0,4.456382904E0,6.400989075E0,9.512914655E0
5.282708333E-2,-5.342689819E0,4.480632477E0,6.917714539E0,9.822177780E0
6.278608338E-2,-5.155578918E0,4.499942322E0,7.334148560E0,1.003091272E1
7.274508337E-2,-4.941823425E0,4.500241699E0,7.504344635E0,1.004932747E1
8.270408335E-2,-4.814138947E0,4.502786407E0,7.492070160E0,9.979084853E0
9.266308334E-2,-4.858297119E0,4.600533142E0,7.440876617E0,1.000672778E1
1.026230833E-1,-4.942122803E0,4.619992676E0,7.194488983E0,9.875706651E0
1.125820834E-1,-4.945865021E0,4.552483063E0,6.824308777E0,9.579032995E0
1.225410834E-1,-5.104834442E0,4.506378937E0,6.582860870E0,9.471052900E0
1.325000834E-1,-5.578000488E0,4.454886017E0,6.466852112E0,9.632251819E0
1.424590833E-1,-5.890999603E0,4.335883484E0,6.323001251E0,9.668717947E0
1.524180833E-1,-5.746100922E0,4.412823486E0,6.081253967E0,9.458981802E0
1.623780833E-1,-5.460345154E0,4.616998901E0,6.038442993E0,9.359211603E0
1.723370834E-1,-4.951702881E0,4.915478210E0,6.247109070E0,9.365236740E0
1.822960834E-1,-4.327201538E0,5.239853668E0,6.255791016E0,9.236647706E0
1.922550834E-1,-3.843856659E0,5.366490326E0,5.952521667E0,8.888586312E0
2.022140833E-1,-3.460204468E0,5.246739349E0,5.627697144E0,8.436365562E0
2.121730833E-1,-3.513044586E0,5.141657867E0,5.460195465E0,8.282020430E0
2.221320834E-1,-4.065545654E0,5.049748993E0,5.627846832E0,8.584945330E0
2.320920834E-1,-4.564009094E0,4.780009918E0,6.571634216E0,9.320142172E0
2.420504167E-1,-4.351151733E0,4.304299164E0,7.595954132E0,9.754897840E0
2.520094167E-1,-3.989503784E0,3.598367157E0,8.266409912E0,9.858900521E0
2.619684167E-1,-4.493206329E0,3.165467377E0,8.502469025E0,1.012428103E1
2.719274167E-1,-4.720433807E0,3.027903442E0,8.318800964E0,1.003260405E1
2.818864167E-1,-4.554878082E0,2.945724335E0,7.881260834E0,9.567574328E0
2.918464167E-1,-5.059179382E0,3.018622742E0,7.496261444E0,9.534218107E0
3.018054167E-1,-5.105882263E0,3.198398895E0,7.882757721E0,9.921575402E0
3.117644167E-1,-4.903952179E0,3.132236481E0,8.044720917E0,9.928604483E0
3.217234167E-1,-4.837640076E0,3.096011810E0,7.960296478E0,9.816026215E0
3.316824167E-1,-5.191204834E0,3.037932587E0,7.820636902E0,9.866103769E0
3.416414167E-1,-5.327870636E0,2.935096436E0,7.825426941E0,9.911523768E0
3.516004167E-1,-4.968917084E0,2.834804993E0,7.655380554E0,9.556731019E0
3.615604167E-1,-4.503983917E0,3.023412781E0,7.292984161E0,9.089252662E0
3.715194167E-1,-4.226161652E0,3.614383850E0,7.088060303E0,9.009151557E0
3.814784167E-1,-3.832929382E0,4.008963318E0,7.140900421E0,9.041879968E0
3.914374167E-1,-3.880829773E0,4.181554413E0,7.445816345E0,9.380107573E0
4.013964167E-1,-4.243375854E0,4.214336243E0,7.959548035E0,9.955966730E0
4.113554167E-1,-4.343667297E0,4.111200714E0,8.607700195E0,1.048150369E1
4.213144167E-1,-4.191583557E0,4.244423676E0,9.049880676E0,1.083904264E1
4.312744167E-1,-4.014352112E0,4.652624817E0,9.454189911E0,1.127579919E1
4.412334167E-1,-3.603905640E0,5.169200592E0,1.006806335E1,1.187748586E1
4.511924167E-1,-2.985541534E0,5.594466248E0,1.043809387E1,1.221332529E1
4.611514167E-1,-2.596350861E0,6.009702759E0,1.070783295E1,1.255050802E1
4.711104167E-1,-1.965263214E0,6.204896851E0,9.141939240E0,1.122221268E1
4.810694167E-1,-2.409838715E0,5.964945831E0,5.162763977E0,8.248759500E0
4.910294167E-1,-3.779789886E0,5.669759674E0,5.710774384E0,8.890777829E0
5.009884167E-1,-4.522395630E0,6.199508057E0,8.071664886E0,1.113722301E1
5.109474167E-1,-2.509531403E0,7.428452454E0,9.403445435E0,1.224354686E1
5.209064167E-1,-7.011419678E-1,9.338031464E0,1.027328659E1,1.390074995E1
5.308654167E-1,4.358935547E-1,1.074989548E1,1.058329193E1,1.509159780E1
5.408244167E-1,1.239422607E-1,1.097323105E1,1.060050613E1,1.525771581E1
5.507834167E-1,-1.278940430E0,1.214349747E1,1.078342575E1,1.629056446E1
5.607434167E-1,-1.514101410E0,1.270887177E1,1.122500748E1,1.702376919E1
5.707024167E-1,-1.125659180E0,1.339729019E1,1.101738922E1,1.738209879E1
5.806614167E-1,2.365081787E-1,1.494821503E1,1.136107452E1,1.877708931E1
5.906204167E-1,1.774260406E0,1.671858353E1,1.225905716E1,2.080729482E1
6.005794167E-1,2.951262817E0,1.801803131E1,1.365206039E1,2.279776650E1
6.105384167E-1,3.262016602E0,1.835258560E1,1.509071869E1,2.398307614E1
6.204984167E-1,3.007994843E0,1.840991638E1,1.573872116E1,2.440656465E1
6.304574167E-1,2.685715027E0,1.794857574E1,1.572045914E1,2.401035760E1
6.404164167E-1,1.996248779E0,1.733200790E1,1.541793823E1,2.328296215E1
6.503754167E-1,1.717528381E0,1.656784698E1,1.481663864E1,2.229296387E1
6.603344167E-1,2.055525513E0,1.567540283E1,1.397793274E1,2.110274965E1
6.702934167E-1,1.506766663E0,1.452744003E1,1.370939117E1,2.003158172E1
6.802534167E-1,1.210981750E-1,1.300031570E1,1.425081528E1,1.929011688E1
6.902124167E-1,-5.424719238E-1,1.162467636E1,1.404963364E1,1.824334349E1
7.001714167E-1,-6.421646118E-1,1.071621552E1,1.307920166E1,1.692085005E1
7.101304167E-1,-2.877017212E-1,9.911488953E0,1.212807953E1,1.566558963E1
7.200894167E-1,4.778063965E-1,8.979976044E0,1.096739319E1,1.418280586E1
7.300484167E-1,8.406518555E-1,8.193212128E0,9.876910858E0,1.286035725E1
7.400074167E-1,3.580554199E-1,6.957681427E0,8.782386932E0,1.121016747E1
7.499674167E-1,-3.338058472E-1,5.378166046E0,7.703580322E0,9.401130046E0
7.599264167E-1,-5.575904846E-1,4.182003479E0,6.498286743E0,7.747760376E0
7.698854167E-1,-7.053332520E-1,3.613635406E0,5.353168030E0,6.497096567E0
7.798444167E-1,-5.733078003E-1,2.999911652E0,4.581672363E0,5.506348463E0
7.898034167E-1,-1.407073975E-1,2.174827423E0,4.021686859E0,4.574236339E0
7.997624167E-1,-2.704875183E-1,1.678759003E0,2.804567871E0,3.279786004E0
8.097214167E-1,-2.341730347E0,9.984237671E-1,2.503244476E0,3.570263848E0
8.196814167E-1,-2.239792328E0,3.641926575E-1,2.919079742E0,3.697341275E0
8.296404167E-1,-2.526745605E0,2.424957275E-2,1.844015350E0,3.128166237E0
8.395994167E-1,-1.826501770E0,-3.508703613E-1,4.052073669E-1,1.903526132E0
8.495584167E-1,-1.097218323E0,-9.243278503E-1,-1.052311707E-1,1.438521332E0
8.595174167E-1,-1.097218323E0,-1.628912659E0,-7.873626709E-2,1.965564524E0
8.694764167E-1,-1.243613892E0,-2.010169830E0,-1.745370483E-1,2.370194389E0
8.794364167E-1,-9.725276184E-1,-2.068698120E0,7.185058594E-2,2.287025227E0
8.893954167E-1,-5.909710693E-1,-2.306852875E0,3.421884155E-1,2.405807536E0
8.993544167E-1,-9.265731812E-2,-2.803220673E0,4.598437500E-1,2.842197705E0
9.093134167E-1,2.276765442E-1,-2.930456085E0,5.281018066E-1,2.986352456E0
9.192724167E-1,-8.143066406E-2,-2.517614594E0,3.305126953E-1,2.540522158E0
9.292314167E-1,-2.174977112E-1,-1.904489594E0,-5.920188904E-1,2.006208422E0
9.391914167E-1,-1.273851013E-1,-1.439855804E0,-1.272054749E0,1.925496036E0
9.491504167E-1,-2.392025757E-1,-8.690927124E-1,-1.594035187E0,1.831253175E0
9.591094167E-1,-3.739224243E-1,-3.899391174E-1,-2.076481934E0,2.145611268E0
9.690684167E-1,-1.675016785E-1,-3.077600098E-1,-2.677931213E0,2.700757046E0
9.790274167E-1,5.013075256E-1,-5.074447632E-1,-2.819836121E0,2.908656936E0
9.889864167E-1,8.164022827E-1,-1.033600616E0,-2.678080902E0,2.984453089E0
9.989454167E-1,1.023870850E0,-1.568887482E0,-2.926414490E0,3.474711673E0
1.008905417E0,2.049088898E0,-1.674268341E0,-3.089575195E0,4.067851359E0
1.018864417E0,2.888692932E0,-1.567989349E0,-2.825673981E0,4.334463162E0
1.028823417E0,2.980601807E0,-1.032253418E0,-2.072739716E0,3.774358777E0
1.038782417E0,2.631677399E0,-3.667373657E-2,-1.852248230E0,3.218368282E0
1.048741417E0,1.179547119E0,1.357676697E0,-2.546205139E0,3.117335085E0
1.058700417E0,1.074765015E-1,1.874851227E0,-2.413131866E0,3.057748146E0
1.068660417E0,1.510359192E-1,1.691781921E0,-1.343007202E0,2.165318975E0
1.078619417E0,6.780899048E-1,1.130299530E0,-5.513035583E-1,1.428747199E0
1.088578417E0,5.861810303E-1,8.922944641E-1,-9.518705750E-1,1.430333948E0
1.098537417E0,1.663041687E-1,1.091829529E0,-2.378254395E0,2.622182824E0
1.108496417E0,-1.782792664E-1,1.422192535E0,-3.913162537E0,4.167404005E0
1.118455417E0,4.887336731E-1,1.719474335E0,-3.862418060E0,4.256022305E0
1.128414417E0,2.234852600E-1,2.218237152E0,-2.487227783E0,3.340183194E0
1.138374417E0,-2.622546387E-1,3.466192017E0,-1.012195129E0,3.620470076E0
1.148333417E0,4.706213379E-1,5.131628723E0,1.118174744E-1,5.154376872E0
1.158292417E0,6.526428223E-1,7.405101013E0,-1.035845947E-1,7.434527116E0
1.168251417E0,-4.039200439E0,1.018841309E1,-8.563691711E-1,1.099328293E1
1.178210417E0,-8.520880737E0,1.051204010E1,8.550219727E-1,1.355874102E1
1.188169417E0,-7.705077209E0,9.614207153E0,3.878434753E0,1.291678947E1
1.198129417E0,-6.980434113E0,1.126347748E1,5.215304718E0,1.424049819E1
1.208088417E0,-8.651109924E0,1.369352417E1,4.252506866E0,1.674628681E1
1.218047417E0,-1.057775345E1,1.533426224E1,3.430865479E0,1.894199842E1
1.228006417E0,-1.188079376E1,1.697035995E1,4.765190735E0,2.125684408E1
1.237965667E0,-1.137319931E1,1.911734528E1,5.893394623E0,2.301205452E1
1.247924667E0,-9.554331665E0,2.187595871E1,6.640940094E0,2.477791170E1
1.257884667E0,-7.849526825E0,2.487512192E1,7.450756073E0,2.712748657E1
1.267843667E0,-5.791157227E0,2.758299088E1,7.916287994E0,2.927501500E1
1.277802667E0,-3.705693970E0,2.961830841E1,8.509803772E0,3.103857473E1
1.287761667E0,-2.378553772E0,3.065595062E1,9.363628235E0,3.214222084E1
1.297720667E0,-2.279160461E0,3.122850998E1,1.005968079E1,3.288786380E1
1.307679667E0,-1.769470367E0,3.147399948E1,1.023526566E1,3.314369219E1
1.317638667E0,-9.614506531E-1,3.150887695E1,9.986033936E0,3.306742488E1
1.327598667E0,-6.411167908E-1,3.088692032E1,9.784552917E0,3.240602341E1
1.337557667E0,-7.937992859E-1,2.970168503E1,1.004740631E1,3.136511732E1
1.347516667E0,-1.082399139E0,2.803804459E1,1.031864227E1,2.989611865E1
1.357475667E0,-1.673968964E0,2.610436569E1,1.031609756E1,2.811871173E1
1.367434667E0,-2.213297424E0,2.427232544E1,1.020487885E1,2.642317203E1
1.377393667E0,-2.541265411E0,2.235616013E1,1.032927017E1,2.475782195E1
1.387353667E0,-2.916684723E0,2.017983582E1,1.027253815E1,2.283107232E1
1.397312667E0,-3.322341156E0,1.799482956E1,9.707762604E0,2.071454794E1
1.407271667E0,-4.208947449E0,1.607162888E1,8.709937592E0,1.875834497E1
1.417230667E0,-4.812791748E0,1.456171875E1,7.874674530E0,1.723998597E1
1.427189667E0,-5.168003082E0,1.312829956E1,7.077881470E0,1.578470498E1
1.437148667E0,-4.774022369E0,1.189995392E1,6.563251648E0,1.440404336E1
1.447108667E0,-3.852688293E0,1.128937363E1,6.781048737E0,1.372136239E1
1.457067667E0,-3.569028168E0,1.082234482E1,6.421197052E0,1.308024774E1
1.467026667E0,-4.050726471E0,9.821675720E0,6.158493347E0,1.228009524E1
1.476985667E0,-4.497696991E0,8.532556458E0,6.114634552E0,1.142026942E1
1.486944667E0,-4.359234924E0,7.254065094E0,5.681734772E0,1.019345376E1
1.496903667E0,-4.074526978E0,6.165079651E0,5.219645691E0,9.047357533E0
1.506863667E0,-3.961062927E0,5.207520905E0,4.857997742E0,8.149137104E0
1.516822667E0,-3.969894562E0,4.340673523E0,4.400698700E0,7.346268339E0
1.526781667E0,-3.861819305E0,3.405119019E0,3.973636780E0,6.503712258E0
1.536740667E0,-3.728446655E0,2.498155060E0,3.463946686E0,5.669305055E0
1.546699667E0,-3.011886749E0,1.665137329E0,2.793041840E0,4.432293631E0
1.556658667E0,-2.022144928E0,7.849676514E-1,2.090552673E0,3.012582746E0
1.566617667E0,-1.544637909E0,-1.127156067E-1,1.293310547E0,2.017737160E0
1.576577667E0,-1.540596313E0,-9.136999512E-1,4.029620361E-1,1.835936547E0
1.586536667E0,-1.732946320E0,-1.635349274E0,-4.037104797E-1,2.416702784E0
1.596495667E0,-1.890418854E0,-2.013462982E0,-1.376088409E0,3.085666206E0
1.606454667E0,-4.673281860E-1,-8.193960571E-1,-1.608105927E0,1.864352489E0
1.616413667E0,6.722520447E-1,-9.310638428E-1,-9.651928711E-1,1.500133317E0
1.626372667E0,8.068222046E-2,-2.887645111E0,-1.007105713E0,3.059291720E0
1.636332667E0,4.695735168E-1,-3.027304688E0,-1.347797241E0,3.346883679E0
1.646291667E0,4.254153442E-1,-2.610720978E0,-1.955533447E0,3.289521744E0
1.656250667E0,9.175918579E-2,-2.875670013E0,-2.348166962E0,3.713729373E0
1.666209667E0,5.104385376E-2,-3.371738434E0,-2.632575531E0,4.278046221E0
1.676168667E0,2.959346008E-1,-3.577410736E0,-3.837270355E0,5.254530297E0
1.686127667E0,6.282435608E-1,-3.707190857E0,-5.767057343E0,6.884540973E0
1.696086667E0,4.519102478E-1,-3.715274048E0,-6.967261505E0,7.908869515E0
1.706046667E0,2.832110596E-1,-3.681743774E0,-6.679859161E0,7.632559475E0
1.716005667E0,2.986289978E-1,-3.430266724E0,-6.519841919E0,7.373211493E0
1.725964667E0,5.689668274E-1,-3.123704224E0,-5.081183624E0,5.991634030E0
1.735923667E0,7.529342651E-1,-3.134032745E0,-3.418591003E0,4.698492919E0
1.745882667E0,6.427633667E-1,-3.232827301E0,-3.323838043E0,4.681048648E0
1.755841667E0,3.601510620E-1,-3.048111420E0,-4.308041382E0,5.289604197E0
1.765801667E0,-2.082170105E-1,-2.797382812E0,-4.912783813E0,5.657221025E0
1.775760667E0,-9.650431824E-1,-2.694846039E0,-4.384532318E0,5.236184409E0
1.785719667E0,-1.463057556E0,-2.575244751E0,-3.449277191E0,4.546420139E0
1.795678667E0,-1.982028351E0,-2.511627045E0,-2.802322540E0,4.253200961E0
1.805637667E0,-2.614463196E0,-2.374512177E0,-2.274370422E0,4.200772155E0
1.815596667E0,-3.111878815E0,-1.944456482E0,-1.437760162E0,3.941047456E0
1.825555667E0,-3.225941620E0,-1.357377319E0,-1.190025330E-1,3.501904357E0
1.835515667E0,-3.058889008E0,-5.613327026E-1,1.019380188E0,3.272771353E0
1.845474667E0,-2.794389038E0,3.914360046E-1,1.886976013E0,3.394482393E0
1.855433667E0,-2.434836731E0,1.423839111E0,2.737357635E0,3.930505635E0
1.865392667E0,-2.242786102E0,2.456691284E0,3.656147003E0,4.942957867E0
1.875351667E0,-2.068997498E0,3.597618713E0,4.791685638E0,6.339074247E0
1.885310667E0,-2.127825165E0,4.863087158E0,5.671705627E0,7.768236696E0
1.895270667E0,-2.267634430E0,6.493646393E0,6.347999268E0,9.359845302E0
1.905229667E0,-1.387913818E0,8.460107117E0,7.326963501E0,1.127759333E1
1.915188667E0,-6.966513062E-1,1.049542465E1,9.126970367E0,1.392626475E1
1.925147667E0,-4.447251892E-1,1.328143112E1,1.108579697E1,1.730575302E1
1.935106667E0,-4.090992737E-1,1.640947632E1,1.212628326E1,2.040796465E1
1.945065667E0,-9.189390564E-1,1.919877594E1,1.247625549E1,2.291493831E1
1.955025667E0,-1.133892059E0,2.144590302E1,1.371702530E1,2.548272455E1
1.964984667E0,-1.489552460E0,2.309247894E1,1.598525848E1,2.812489714E1
1.974943667E0,-2.129920807E0,2.435345673E1,1.766641251E1,3.016172323E1
1.984902667E0,-2.148332520E0,2.548225937E1,1.861873215E1,3.163254751E1
1.994861667E0,-2.038910065E0,2.602083939E1,1.862367188E1,3.206372391E1
2.004820667E0,-1.667831726E0,2.611065262E1,1.798195633E1,3.174741873E1
2.014779667E0,-1.281335449E0,2.590393250E1,1.687261322E1,3.094092138E1
2.024739667E0,-9.419911194E-1,2.516581741E1,1.580548233E1,2.973245676E1
2.034698667E0,-5.653742981E-1,2.396696045E1,1.497126709E1,2.826435351E1
2.044657667E0,5.810916138E-1,2.277693512E1,1.421593781E1,2.685552697E1
2.054616667E0,1.999990997E0,2.165172501E1,1.344578934E1,2.556533611E1
2.064575667E0,2.008822632E0,2.020004379E1,1.238359818E1,2.377878553E1
2.074534667E0,1.332528992E0,1.845946335E1,1.123069565E1,2.164846289E1
2.084494667E0,7.620652771E-1,1.665167267E1,1.008422974E1,1.948205932E1
2.094453667E0,6.447093201E-1,1.500704269E1,9.070088654E0,1.754689399E1
2.104412667E0,4.885839844E-1,1.330403412E1,8.177345123E0,1.562386032E1
2.114371667E0,8.981323242E-3,1.179352524E1,7.302115173E0,1.387112844E1
2.124330667E0,-7.752378845E-1,1.042611877E1,6.405629425E0,1.226120038E1
2.134289667E0,-1.477577362E0,9.212292938E0,5.545368347E0,1.085360245E1
2.144249667E0,-1.689237213E0,8.217611389E0,4.813689880E0,9.672345608E0
2.154208667E0,-1.721569977E0,7.316335602E0,4.331542511E0,8.674954199E0
2.164167667E0,-1.923200684E0,6.625222778E0,3.826941833E0,7.889091299E0
2.174126667E0,-2.278262329E0,6.209986267E0,3.072810059E0,7.293597900E0
2.184085667E0,-2.651136932E0,5.886808319E0,2.390079803E0,6.884440477E0
2.194044667E0,-2.520009613E0,5.698350220E0,2.037562866E0,6.555402818E0
2.204003667E0,-2.002236328E0,5.521418152E0,1.980830841E0,6.198281983E0
2.213963667E0,-1.783241730E0,5.246589661E0,1.706152039E0,5.798069413E0
2.223922667E0,-1.779649200E0,5.101092224E0,1.105451202E0,5.514554879E0
2.233881667E0,-1.889969788E0,5.088817749E0,7.972421265E-1,5.486679040E0
2.243840667E0,-1.759441223E0,5.176984406E0,5.331912231E-1,5.493732232E0
2.253799667E0,-1.368903351E0,5.264701996E0,4.328997803E-1,5.456957551E0
2.263758667E0,-1.071471863E0,5.416186981E0,5.215155029E-1,5.545729148E0
2.273718667E0,-9.369017029E-1,5.587281189E0,4.282594299E-1,5.681452457E0
2.283677667E0,-1.056053925E0,5.927972717E0,2.228865051E-1,6.025428518E0
2.293636667E0,-9.834548950E-1,6.607409821E0,2.436932373E-1,6.684641685E0
2.303595667E0,-6.159690857E-1,6.991211700E0,6.545887756E-1,7.048754884E0
2.313554667E0,-3.134481812E-1,7.104825439E0,1.428030396E0,7.253693204E0
2.323513667E0,-3.727249146E-1,7.246880035E0,1.628014526E0,7.436842435E0
2.333473667E0,-5.962101746E-1,7.449708252E0,1.369651794E0,7.597997476E0
2.343432667E0,-6.831793213E-1,7.572453003E0,1.325343933E0,7.717856892E0
2.353391667E0,-5.411247253E-1,7.699239349E0,1.235830078E0,7.816545177E0
2.363350667E0,-3.321592712E-1,7.931855621E0,1.192869415E0,8.027926309E0
2.373309667E0,-2.974314880E-1,8.186925201E0,1.325942688E0,8.298935700E0
2.383268667E0,-5.002597046E-1,8.400531006E0,1.248553619E0,8.507530023E0
2.393227667E0,-5.569917297E-1,8.713829498E0,1.103355560E0,8.801048676E0
2.403187667E0,-4.092489624E-1,9.028325500E0,1.053808594E0,9.098827320E0
2.413146667E0,-1.122665405E-2,9.448052673E0,1.157692566E0,9.518722469E0
2.423105667E0,4.201762390E-1,9.838740234E0,1.393901367E0,9.945869419E0
2.433064667E0,6.783892822E-1,1.005728577E1,1.639839935E0,1.021265313E1
2.443023667E0,7.021897888E-1,1.010084518E1,1.847458191E0,1.029238776E1
2.452982667E0,6.185137939E-1,1.000399658E1,1.873204651E0,1.019663683E1
2.462942667E0,6.234535217E-1,9.838590546E0,1.955084381E0,1.005031906E1
2.472901667E0,5.685177612E-1,9.561965790E0,2.290686493E0,9.848941406E0
2.482860667E0,3.701802063E-1,9.103768616E0,2.643802185E0,9.487113702E0
2.492819667E0,3.218307495E-2,8.427774353E0,2.568209381E0,8.810454910E0
2.502778667E0,-2.899470520E-1,7.755222931E0,2.326013031E0,8.101721337E0
2.512737667E0,-7.568261719E-1,7.005132751E0,2.059866486E0,7.340825612E0
2.522697667E0,-1.296753387E0,6.220913544E0,1.800605621E0,6.604810010E0
2.532656667E0,-1.798659668E0,5.410798187E0,1.445693665E0,5.882341693E0
2.542615667E0,-2.312690735E0,4.438120880E0,1.226699066E0,5.152693080E0
2.552574667E0,-2.813998260E0,3.403622131E0,9.333091736E-1,4.513789521E0
2.562533667E0,-3.400927734E0,2.273322601E0,7.126679993E-1,4.152372910E0
2.572492667E0,-3.920646973E0,1.247505798E0,3.185375977E-1,4.126646290E0
2.582451667E0,-4.206702118E0,3.824546814E-1,-5.298980713E-2,4.224384241E0
2.592411667E0,-4.211492157E0,-2.650987244E-1,-1.158590698E-1,4.221417635E0
2.602370667E0,-4.185446320E0,-6.117778015E-1,3.068618774E-2,4.230032460E0
2.612329667E0,-3.941004639E0,-8.352630615E-1,2.534230042E-1,4.036509032E0
2.622288667E0,-3.834725647E0,-1.099912720E0,1.138682098E0,4.148677584E0
2.632247667E0,-3.846700745E0,-1.018631744E0,2.250569916E0,4.571627959E0
2.642206667E0,-3.909420319E0,-8.253836060E-1,2.667153625E0,4.804012259E0
2.652166667E0,-3.649111633E0,-8.285270691E-1,3.234623566E0,4.946237199E0
2.662125667E0,-3.468137970E0,-7.113208008E-1,4.101770325E0,5.418346432E0
2.672084667E0,-3.066223755E0,4.028123474E-1,4.993615723E0,5.873685716E0
2.682043667E0,-2.493514709E0,2.333647156E0,5.835914154E0,6.761761506E0
2.692002667E0,-1.676064606E0,4.565955048E0,7.810607758E0,9.201235330E0
2.701961667E0,-1.361119537E0,7.555687866E0,1.018272491E1,1.275260570E1
2.711921667E0,-7.306306458E-1,1.172332123E1,1.260169464E1,1.722709464E1
2.721880667E0,7.899073792E-1,1.610875168E1,1.406774597E1,2.140133900E1
2.731839667E0,2.457439728E0,2.029270111E1,1.547511932E1,2.563809756E1
2.741798667E0,2.924468536E0,2.393672333E1,1.642549301E1,2.917732100E1
2.751757667E0,3.103346558E0,2.692046860E1,1.751313126E1,3.226533985E1
2.761716667E0,3.152893524E0,2.911176178E1,1.877725250E1,3.478535070E1
2.771675667E0,3.100203094E0,3.086506577E1,1.988584717E1,3.684712284E1
2.781635667E0,3.274141388E0,3.181454132E1,2.042592407E1,3.794869452E1
2.791594667E0,3.473975830E0,3.160467773E1,2.027114594E1,3.770734040E1
2.801553667E0,3.202141113E0,3.011407745E1,1.944770828E1,3.599061997E1
2.811512667E0,2.720592499E0,2.781036804E1,1.814107544E1,3.331541403E1
2.821471667E0,2.241887970E0,2.512270706E1,1.679657135E1,3.030348628E1
2.831430667E0,1.699865112E0,2.249447250E1,1.579290848E1,2.753737084E1
2.841390667E0,1.306932220E0,2.022863434E1,1.475047623E1,2.506954862E1
2.851349667E0,6.746470642E-1,1.821397385E1,1.358200607E1,2.273048352E1
2.861308667E0,6.810836792E-2,1.649973862E1,1.261112503E1,2.076743816E1
2.871267667E0,-2.386038208E-1,1.507320511E1,1.193498108E1,1.922764201E1
2.881226667E0,-4.472698975E-1,1.373184448E1,1.157602753E1,1.796574564E1
2.891185667E0,-6.643185425E-1,1.227627136E1,1.130913254E1,1.670462919E1
2.901145667E0,-8.494834900E-1,1.086306015E1,1.069046906E1,1.526479042E1
2.911104667E0,-1.200503540E0,9.628277893E0,9.430838470E0,1.353091491E1
2.921063667E0,-1.412462769E0,8.480315094E0,8.543034668E0,1.211999326E1
2.931022667E0,-1.349443817E0,7.290589142E0,8.042176208E0,1.093847735E1
2.940981667E0,-1.063238983E0,6.095175018E0,7.336693268E0,9.597327948E0
2.950940667E0,-9.104067993E-1,4.815186768E0,6.703959045E0,8.304091222E0
2.960900667E0,-1.040785675E0,3.412603455E0,6.003565521E0,6.983687860E0
2.970859667E0,-1.286873932E0,2.081122284E0,5.056035919E0,5.616993297E0
2.980818667E0,-1.464255066E0,8.503816223E-1,4.119732971E0,4.454143190E0
2.990777667E0,-1.642234955E0,-1.710942078E-1,3.108735352E0,3.520006301E0
3.000736667E0,-1.811233521E0,-9.172924805E-1,2.244881744E0,3.026794741E0
3.010695667E0,-1.887425079E0,-1.410965881E0,1.666783905E0,2.886410701E0
3.020654667E0,-1.850601654E0,-1.818717957E0,1.147813110E0,2.837240988E0
3.030614667E0,-1.586101685E0,-2.148631897E0,6.646179199E-1,2.752100028E0
3.040573667E0,-1.121018829E0,-2.416574707E0,2.531236267E-1,2.675927522E0
3.050532667E0,-8.306227112E-1,-2.550845490E0,-1.856140137E-2,2.682739519E0
3.060491667E0,-8.095166016E-1,-2.612217865E0,-1.751358032E-1,2.740378049E0
3.070450667E0,-9.460327148E-1,-2.751128998E0,-3.372486877E-1,2.928724183E0
3.080409667E0,-1.082548828E0,-2.788551178E0,-5.733078003E-1,3.045753022E0
3.090369667E0,-1.195863190E0,-2.775827637E0,-8.107141113E-1,3.129307465E0
3.100328667E0,-1.452579346E0,-2.779719543E0,-8.839118958E-1,3.258546875E0
3.110287667E0,-1.738634491E0,-2.710114288E0,-9.463320923E-1,3.356056283E0
3.120246667E0,-1.830243988E0,-2.708318024E0,-1.252595215E0,3.500539151E0
3.130205667E0,-1.760189667E0,-2.750081177E0,-1.622476044E0,3.646044796E0
3.140164667E0,-1.511107635E0,-2.771636353E0,-2.011666718E0,3.743289641E0
3.150124667E0,-1.268312531E0,-2.772534485E0,-2.205962677E0,3.763221423E0
3.160083667E0,-1.050515442E0,-2.703527985E0,-1.972448273E0,3.507591545E0
3.170042667E0,-1.167422333E0,-2.725681915E0,-1.723066864E0,3.429457133E0
3.180001667E0,-1.534010010E0,-2.527194672E0,-1.647474060E0,3.384386266E0
3.189960667E0,-2.132465515E0,-2.063459015E0,-1.151255951E0,3.182870174E0
3.199919667E0,-2.482886810E0,-1.787882080E0,-7.185058594E-1,3.142849012E0
3.209879667E0,-2.752775574E0,-1.621727600E0,-6.457571411E-1,3.259566851E0
3.219838667E0,-3.141666870E0,-1.507215729E0,-2.847079468E-1,3.496116215E0
3.229797667E0,-3.516337738E0,-1.329535217E0,-1.228944397E-1,3.761302703E0
3.239756708E0,-4.020639038E0,-8.421487427E-1,4.719685364E-1,4.134913189E0
3.249715708E0,-4.012555847E0,-2.517764282E-1,9.086105347E-1,4.121840475E0
3.259674708E0,-4.237987061E0,5.432203674E-1,1.300645294E0,4.466240127E0
3.269634708E0,-4.271217957E0,1.643133087E0,1.906734924E0,4.957703828E0
3.279593708E0,-4.595593414E0,2.904559937E0,2.217039642E0,5.871218956E0
3.289552708E0,-4.105811920E0,4.169878693E0,3.039579163E0,6.594287021E0
3.299511708E0,-3.339854736E0,5.286556549E0,4.097429352E0,7.476044215E0
3.309470708E0,-2.703078918E0,6.260281677E0,4.514013062E0,8.177657136E0
3.319429708E0,-2.584375763E0,7.003486176E0,4.591402130E0,8.764062426E0
3.329389708E0,-3.193459167E0,8.707392883E0,4.035308533E0,1.011437528E1
3.339348708E0,-3.154091034E0,1.166269730E1,3.694467316E0,1.263391813E1
3.349307708E0,-2.195035400E0,1.455498276E1,5.125192108E0,1.558631764E1
3.359266708E0,-1.162332916E0,1.700793182E1,7.163952484E0,1.849170024E1
3.369225708E0,-1.315763855E0,1.913171539E1,8.937464447E0,2.115731644E1
3.379184708E0,-2.197131042E0,2.147973267E1,9.216933289E0,2.347675786E1
3.389144708E0,-2.503693542E0,2.362312546E1,8.498427429E0,2.522981979E1
3.399103708E0,-2.418071594E0,2.570020615E1,8.530909882E0,2.718683670E1
3.409062708E0,-2.238744507E0,2.783327042E1,9.106612701E0,2.937061991E1
3.419021708E0,-2.297422485E0,2.984793091E1,9.448801117E0,3.139198898E1
3.428980708E0,-2.048190765E0,3.140499298E1,1.006207581E1,3.304109621E1
3.438940708E0,-2.120789795E0,3.230147873E1,1.123428818E1,3.426503332E1
3.448899708E0,-2.274220734E0,3.251792862E1,1.124087448E1,3.448108207E1
3.458858708E0,-2.068099365E0,3.189312790E1,1.051159103E1,3.364434853E1
3.468817708E0,-1.664538574E0,3.038815750E1,9.758956146E0,3.196010060E1
3.478776708E0,-1.368603973E0,2.863635040E1,9.268126831E0,3.012991564E1
3.488735708E0,-1.442250824E0,2.672542419E1,8.885672150E0,2.820077225E1
3.498695708E0,-1.649719391E0,2.462334549E1,8.355175323E0,2.605455185E1
3.508654708E0,-1.658700714E0,2.244896713E1,7.824678497E0,2.383134505E1
3.518613708E0,-1.403631134E0,2.027952850E1,7.369924164E0,2.162279443E1
3.528572708E0,-1.576072540E0,1.826711334E1,7.076085205E0,1.965305107E1
3.538531708E0,-2.030078430E0,1.643627060E1,6.674170990E0,1.785544085E1
3.548490708E0,-2.397713928E0,1.474299179E1,6.095624084E0,1.613262136E1
3.558450708E0,-2.534080353E0,1.329804657E1,5.470973053E0,1.460106681E1
3.568409708E0,-2.712060242E0,1.197928894E1,4.885091400E0,1.321827342E1
3.578368708E0,-2.815794525E0,1.085931793E1,4.449946289E0,1.206878232E1
3.588327708E0,-2.808160400E0,9.950557709E0,4.174069977E0,1.114998761E1
3.598286708E0,-2.815944214E0,9.040450287E0,3.954476624E0,1.026144086E1
3.608245708E0,-2.827170868E0,8.203989716E0,3.431464233E0,9.331306937E0
3.618205708E0,-2.832110596E0,7.586224365E0,2.883154449E0,8.595593646E0
3.628164708E0,-2.733615417E0,7.050189056E0,2.587968292E0,7.992208635E0
3.638123708E0,-2.661166077E0,6.569987640E0,2.502945099E0,7.517398263E0
3.648082708E0,-2.493514709E0,6.125412140E0,2.496358795E0,7.068953015E0
3.658041708E0,-2.209704895E0,5.618416443E0,2.572101288E0,6.562400787E0
3.668000708E0,-2.070943451E0,5.141657867E0,2.392175446E0,6.037214239E0
3.677960708E0,-2.029180298E0,4.652325439E0,2.216740265E0,5.538559567E0
3.687919708E0,-2.091001740E0,4.035907288E0,2.030826874E0,4.978462986E0
3.697878708E0,-2.139949951E0,3.433410187E0,1.650767212E0,4.369522135E0
3.707837708E0,-2.158211975E0,2.833607483E0,1.316512299E0,3.797422143E0
3.717796708E0,-1.964365082E0,2.258054352E0,9.319619751E-1,3.134659910E0
3.727755708E0,-1.627715149E0,1.851799164E0,4.716691589E-1,2.510196914E0
3.737715708E0,-1.461261292E0,1.433119812E0,1.956431580E-1,2.056062548E0
3.747674708E0,-1.640438690E0,1.018931122E0,6.271957397E-2,1.932147373E0
3.757633708E0,-1.952689362E0,6.298901367E-1,-9.864486694E-2,2.054139269E0
3.767592708E0,-2.100581818E0,2.921923828E-1,-1.938468933E-1,2.129647149E0
3.777551708E0,-2.270478516E0,2.341131592E-1,-2.312690735E-1,2.294202922E0
3.787510708E0,-2.414329376E0,3.091072083E-1,-2.520758057E-1,2.447054518E0
3.797470708E0,-2.611020355E0,3.378474426E-1,2.080673218E-2,2.632869368E0
3.807429708E0,-2.562521210E0,4.596940613E-1,1.490899658E-1,2.607692735E0
3.817388708E0,-2.287692719E0,4.725672913E-1,1.471440125E-1,2.340621537E0
3.827347708E0,-2.132016449E0,3.510200500E-1,2.044747925E-1,2.170373045E0
3.837306708E0,-2.129621429E0,2.398013306E-1,2.926414490E-1,2.162968129E0
3.847265708E0,-2.097138977E0,1.854643250E-1,9.295669556E-2,2.107375110E0
3.857225708E0,-2.121837616E0,1.309776306E-1,-6.750961304E-2,2.126947944E0
3.867184708E0,-2.375859375E0,3.188369751E-2,-5.343887329E-2,2.376674158E0
3.877143708E0,-2.492915955E0,1.532812500E-1,1.113684082E-1,2.500105602E0
3.887102708E0,-2.575394440E0,4.197271729E-1,1.844165039E-1,2.615881661E0
3.897061708E0,-2.671793976E0,5.785469055E-1,4.086502075E-1,2.764090187E0
3.907020708E0,-2.330204315E0,8.494834900E-1,8.045768738E-1,2.607454371E0
3.916980708E0,-1.924697571E0,1.145867157E0,1.089135132E0,2.490720301E0
3.926939708E0,-1.420995026E0,1.387464752E0,1.486408997E0,2.480664630E0
3.936898708E0,-1.571581879E0,1.513203278E0,2.059417419E0,3.000142308E0
3.946857708E0,-1.444795532E0,1.747017059E0,2.923121338E0,3.699208171E0
3.956816708E0,-1.676813049E0,2.173031158E0,3.456162872E0,4.413482550E0
3.966775708E0,-1.819915466E0,2.906505890E0,3.827241211E0,5.138836841E0
3.976735708E0,-2.368674316E0,3.390299835E0,4.253255310E0,5.932531645E0
3.986694708E0,-2.958148499E0,4.171076202E0,4.614603882E0,6.887894324E0
3.996653708E0,-2.683170319E0,5.124293976E0,5.065915375E0,7.689037020E0
4.006612708E0,-2.153421936E0,5.846392365E0,6.139782257E0,8.747254191E0
4.016571708E0,-1.863175507E0,6.970255280E0,7.634873199E0,1.050462614E1
4.026531708E0,-2.346969452E0,8.467142487E0,8.396040344E0,1.215295277E1
4.036490708E0,-2.806663513E0,1.036205200E1,8.611442413E0,1.376250058E1
4.046449708E0,-3.033142548E0,1.249691254E1,8.953032074E0,1.566938288E1
4.056408708E0,-2.788700867E0,1.506751694E1,9.642348633E0,1.810474541E1
4.066367708E0,-1.725910950E0,1.799542831E1,1.061637314E1,2.096477015E1
4.076326708E0,-9.601034546E-1,2.053968750E1,1.193138855E1,2.377306446E1
4.086286708E0,-1.080902252E0,2.280357971E1,1.318383408E1,2.636256965E1
4.096245708E0,-1.482068024E0,2.410452438E1,1.358050919E1,2.770658498E1
4.106204708E0,-1.741029510E0,2.445030533E1,1.277862671E1,2.764311695E1
4.116163708E0,-1.806144104E0,2.395723068E1,1.173544601E1,2.673820771E1
4.126122708E0,-1.823807373E0,2.329366058E1,1.092084000E1,2.579119313E1
4.136081708E0,-1.777104492E0,2.282857773E1,1.051757858E1,2.519764911E1
4.146041708E0,-1.727707214E0,2.260075150E1,1.065978287E1,2.504815185E1
4.156000708E0,-1.305585022E0,2.259281799E1,1.091859467E1,2.512679221E1
4.165959708E0,-9.178912354E-1,2.245749939E1,1.136436768E1,2.518592178E1
4.175918708E0,-1.026415558E0,2.183659058E1,1.147124542E1,2.468764242E1
4.185877708E0,-1.217867432E0,2.066991669E1,1.096724350E1,2.343094294E1
4.195836708E0,-1.301244049E0,1.906600204E1,1.041743683E1,2.176530864E1
4.205796708E0,-1.462458801E0,1.733021164E1,9.745933228E0,1.993635462E1
4.215755708E0,-1.828298035E0,1.559337341E1,9.054371338E0,1.812395124E1
4.225714708E0,-2.186503143E0,1.398676437E1,8.300538940E0,1.641064655E1
4.235673708E0,-2.103425903E0,1.261920822E1,7.805368652E0,1.498641373E1
4.245633208E0,-1.749861145E0,1.152124146E1,7.242389374E0,1.372054017E1
4.255592208E0,-1.780547333E0,1.072669373E1,6.492448883E0,1.266428836E1
4.265552208E0,-2.156715088E0,1.005908203E1,6.070626068E0,1.194525228E1
4.275511208E0,-2.507435760E0,9.565857697E0,5.869294739E0,1.149962992E1
4.285470208E0,-2.520458679E0,9.299561462E0,6.031257935E0,1.136708527E1
4.295429208E0,-2.409689026E0,9.009464722E0,6.163433075E0,1.117877288E1
4.305388208E0,-2.347717896E0,8.695268097E0,5.969586182E0,1.080534246E1
4.315347208E0,-2.227068787E0,8.317753143E0,5.506000214E0,1.022061109E1
4.325307208E0,-2.175276489E0,7.936645660E0,5.060676270E0,9.660880728E0
4.335266208E0,-2.172432404E0,7.705226898E0,4.650978241E0,9.258595072E0
4.345225208E0,-2.052831116E0,7.635621643E0,4.448898468E0,9.072460033E0
4.355184208E0,-1.995350647E0,7.733368378E0,4.668791199E0,9.251163274E0
4.365143208E0,-2.053579559E0,8.136480103E0,5.141508179E0,9.841473661E0
4.375102208E0,-1.989512787E0,8.538993073E0,5.689069519E0,1.045170205E1
4.385062208E0,-1.929936676E0,8.653205566E0,6.008954315E0,1.071028263E1
4.395021208E0,-1.965263214E0,8.559201050E0,6.146967316E0,1.071948643E1
4.404980208E0,-2.139351196E0,8.461454315E0,6.024971008E0,1.060534339E1
4.414939208E0,-2.038161621E0,8.449928284E0,5.583988037E0,1.033132679E1
4.424898208E0,-1.746268616E0,8.329129486E0,5.378764801E0,1.006752019E1
4.434857208E0,-1.567091217E0,8.155490570E0,5.400769043E0,9.906367022E0
4.444817208E0,-1.453327789E0,7.950417023E0,5.381608887E0,9.709943703E0
4.454776208E0,-1.222807159E0,7.695646820E0,4.942571869E0,9.227526971E0
4.464735208E0,-1.058149567E0,7.319029999E0,4.450545044E0,8.631062033E0
4.474694208E0,-1.042432251E0,6.814129944E0,4.118236084E0,8.029875487E0
4.484653208E0,-1.077609100E0,6.356381836E0,3.923491058E0,7.547093050E0
4.494612208E0,-1.120719452E0,5.984704742E0,3.502266998E0,7.024142444E0
4.504572208E0,-1.163680115E0,5.651198273E0,3.195405121E0,6.595514174E0
4.514531208E0,-1.233584747E0,5.204227753E0,2.916385345E0,6.091881591E0
4.524490208E0,-1.273551636E0,4.838089142E0,2.570903778E0,5.624818801E0
4.534449208E0,-1.211879883E0,4.471202087E0,2.284100189E0,5.165018357E0
4.544408208E0,-1.344953156E0,3.935166779E0,1.867067413E0,4.558549911E0
4.554368208E0,-1.435065765E0,3.375480652E0,1.586251373E0,3.996182779E0
4.564327208E0,-1.418001251E0,2.793490906E0,1.322799225E0,3.400605355E0
4.574286208E0,-1.370400238E0,2.176623688E0,1.062041473E0,2.782735988E0
4.584245208E0,-1.208736420E0,1.535357208E0,9.331594849E-1,2.165445015E0
4.594204208E0,-1.155297546E0,9.042695618E-1,7.547305298E-1,1.649858792E0
4.604163208E0,-1.400787048E0,3.002755737E-1,3.517684937E-1,1.475164685E0
4.614123208E0,-1.778002625E0,-3.221301270E-1,-7.304809570E-2,1.808423948E0
4.624082208E0,-2.238445129E0,-1.021775208E0,-2.122586060E-1,2.469760087E0
4.634041208E0,-2.872077484E0,-1.769769745E0,-4.998106384E-1,3.410384832E0
4.644000208E0,-3.530558167E0,-2.297572174E0,-8.500822449E-1,4.297245476E0
4.653959208E0,-3.832031250E0,-2.620899811E0,-7.237449646E-1,4.698657903E0
4.663918208E0,-4.077221375E0,-2.839445343E0,-4.082011414E-1,4.985259488E0
4.673877208E0,-4.082610168E0,-2.660267944E0,3.519181824E-1,4.885547843E0
4.683837208E0,-3.841761017E0,-2.171833649E0,1.414708099E0,4.634370304E0
4.693796208E0,-3.718118134E0,-1.557660828E0,2.641706543E0,4.819680816E0
4.703755208E0,-3.291205902E0,-8.268804932E-1,3.662583618E0,4.993023773E0
4.713714208E0,-3.163371735E0,-4.406835938E-1,3.829636230E0,4.986705969E0
4.723673208E0,-3.027454376E0,-3.323089600E-2,4.464765472E0,5.394507857E0
4.733632208E0,-2.688858490E0,6.429130554E-1,5.620661774E0,6.263795650E0
4.743592208E0,-2.801574097E0,1.830543365E0,6.306385803E0,7.139342290E0
4.753551208E0,-2.164498901E0,3.367397461E0,6.929390259E0,8.002553999E0
4.763510208E0,-1.674418030E0,4.438569946E0,7.544311523E0,8.911858127E0
4.773469208E0,-1.508263550E0,5.632337494E0,8.569379883E0,1.036495809E1
4.783428208E0,-1.366658020E0,7.332202606E0,9.747879181E0,1.227396015E1
4.793387208E0,-1.354233856E0,9.592651978E0,1.029424301E1,1.413592446E1
4.803347208E0,-1.750160522E0,1.186313049E1,1.075947556E1,1.611096649E1
4.813306208E0,-1.561253357E0,1.416489395E1,1.197360077E1,1.861313644E1
4.823265208E0,-8.975335693E-1,1.618928421E1,1.309761337E1,2.084336743E1
4.833224208E0,-3.803590393E-1,1.741343857E1,1.339998459E1,2.197571621E1
4.843183208E0,-3.906875610E-1,1.798929108E1,1.349937790E1,2.249445340E1
4.853143208E0,-1.396595764E0,1.841216171E1,1.303055283E1,2.259985588E1
4.863102208E0,-2.266885986E0,1.935969131E1,1.255663834E1,2.318632326E1
4.873061208E0,-2.485132141E0,2.079326019E1,1.322904007E1,2.476980122E1
4.883020208E0,-2.426154785E0,2.251033951E1,1.437490723E1,2.681864220E1
4.892979208E0,-2.524500275E0,2.420631271E1,1.489283020E1,2.853270173E1
4.902938208E0,-2.610720978E0,2.535247925E1,1.541015442E1,2.978316517E1
4.912898208E0,-3.099903717E0,2.569571548E1,1.582164871E1,3.033486056E1
4.922857208E0,-3.596271515E0,2.544783096E1,1.594783630E1,3.024663208E1
4.932816208E0,-3.586242371E0,2.480222351E1,1.595457230E1,2.970790808E1
4.942775208E0,-3.672014008E0,2.362956207E1,1.561837143E1,2.856174744E1
4.952734208E0,-3.741319885E0,2.200199661E1,1.541614197E1,2.712457857E1
4.962693208E0,-3.786376190E0,2.016516632E1,1.503757919E1,2.543814784E1
4.972653208E0,-3.998934174E0,1.838925934E1,1.430230820E1,2.363709697E1
4.982612208E0,-4.247118073E0,1.675106598E1,1.365580261E1,2.202537556E1
4.992571208E0,-4.330345001E0,1.532363434E1,1.318383408E1,2.067315017E1
5.002530208E0,-4.297563171E0,1.430904419E1,1.276171188E1,1.964889526E1
5.012489208E0,-4.245770874E0,1.358859238E1,1.241009308E1,1.888615428E1
5.022448208E0,-4.160448303E0,1.301393738E1,1.207194626E1,1.823194402E1
5.032408208E0,-4.132456512E0,1.246862137E1,1.176224030E1,1.763218683E1
5.042367208E0,-4.101470947E0,1.191537186E1,1.151480484E1,1.707011661E1
5.052326208E0,-4.063000946E0,1.129326553E1,1.132499954E1,1.650155865E1
5.062285208E0,-4.141886902E0,1.057161621E1,1.118084930E1,1.593504589E1
5.072244208E0,-4.315376129E0,9.863738251E0,1.072759186E1,1.519858646E1
5.082203208E0,-4.390370178E0,9.217382355E0,1.025906616E1,1.447355956E1
5.092163208E0,-4.381089478E0,8.567733307E0,9.951156464E0,1.384288677E1
5.102122208E0,-4.343667297E0,7.885901184E0,9.621541901E0,1.317683390E1
5.112081208E0,-4.333189087E0,7.206613770E0,9.187444611E0,1.245475605E1
5.122040208E0,-4.273014221E0,6.462660828E0,8.630752258E0,1.159803949E1
5.131999208E0,-4.070485382E0,5.671855316E0,8.095016327E0,1.068962503E1
5.141958208E0,-3.907923431E0,4.831802216E0,7.463180237E0,9.711706207E0
5.151918208E0,-3.634142761E0,4.124672699E0,6.767277374E0,8.718713296E0
5.161877208E0,-3.382366333E0,3.555406494E0,6.096222839E0,7.825934465E0
5.171836208E0,-3.105741577E0,3.079546051E0,5.375022583E0,6.929653844E0
5.181795208E0,-2.649340668E0,2.567760315E0,4.768483887E0,6.029165580E0
5.191754208E0,-2.182012482E0,1.950893097E0,4.234394531E0,5.147548872E0
5.201713208E0,-1.803150330E0,1.312620392E0,3.694167938E0,4.315228865E0
5.211673208E0,-1.465751953E0,7.005432129E-1,3.232527924E0,3.617793023E0
5.221632208E0,-1.254241791E0,1.802252197E-1,2.714155884E0,2.995370722E0
5.231591208E0,-1.256187744E0,-2.037263489E-1,2.079775085E0,2.438232245E0
5.241550292E0,-1.270707550E0,-5.285508728E-1,1.381776581E0,1.950223121E0
5.251509292E0,-1.228495331E0,-8.565188599E-1,7.250921631E-1,1.663906241E0
5.261468292E0,-1.143621826E0,-1.212179260E0,9.565109253E-2,1.669250901E0
5.271428292E0,-1.110091553E0,-1.556014252E0,-4.326004028E-1,1.959751697E0
5.281387292E0,-1.081501007E0,-1.805844727E0,-9.327104187E-1,2.302318034E0
5.291346292E0,-1.063987427E0,-1.975591736E0,-1.533261566E0,2.717705463E0
5.301305292E0,-1.069825287E0,-2.089205475E0,-2.009421387E0,3.089834942E0
5.311264292E0,-1.010698242E0,-2.275418243E0,-2.291584625E0,3.383843852E0
5.321223292E0,-9.193881226E-1,-2.589764557E0,-2.481539612E0,3.702727890E0
5.331183292E0,-9.291178894E-1,-2.894979858E0,-2.791844330E0,4.127779451E0
5.341142292E0,-9.527687073E-1,-3.123255157E0,-3.184627533E0,4.561177865E0
5.351101292E0,-1.007704468E0,-3.256777496E0,-3.643573151E0,4.989758838E0
5.361060292E0,-1.194066925E0,-3.351680145E0,-3.991749115E0,5.347299937E0
5.371019292E0,-1.440155182E0,-3.419638824E0,-4.112248535E0,5.538823400E0
5.380978292E0,-1.679507446E0,-3.511098633E0,-3.846700745E0,5.472263288E0
5.390938292E0,-2.048639832E0,-3.485052795E0,-3.286565552E0,5.209993404E0
5.400897292E0,-2.297871552E0,-3.293900299E0,-2.550695801E0,4.757734956E0
5.410856292E0,-2.630928955E0,-3.174149323E0,-1.855541382E0,4.521066789E0
5.420815292E0,-3.048410797E0,-2.971919861E0,-9.213340759E-1,4.355912364E0
5.430774292E0,-3.559597778E0,-2.594853973E0,5.583389282E-2,4.405351395E0
5.440733292E0,-3.828289032E0,-1.836381226E0,1.256636810E0,4.428005080E0
5.450693292E0,-3.490291901E0,-6.369255066E-1,1.934427338E0,4.041017295E0
5.460652292E0,-3.074456635E0,5.004093933E-1,2.048789520E0,3.728301444E0
5.470611292E0,-3.047213287E0,1.275497589E0,2.893482971E0,4.391428768E0
5.480570292E0,-3.390150146E0,1.730251923E0,3.908073120E0,5.455265827E0
5.490529292E0,-3.753444672E0,2.348316650E0,4.689747620E0,6.449548103E0
5.500488292E0,-4.123475189E0,3.853586426E0,5.640121307E0,7.978981410E0
5.510448292E0,-3.898792419E0,5.740861816E0,6.532864838E0,9.530813172E0
5.520407292E0,-3.400328979E0,7.923173676E0,7.663014679E0,1.153519450E1
5.530366292E0,-2.615511017E0,9.921368408E0,8.349786530E0,1.322850649E1
5.540325292E0,-2.483635254E0,1.141481277E1,8.748856659E0,1.459482400E1
5.550284292E0,-2.427501984E0,1.240889557E1,8.999136200E0,1.551959753E1
5.560243292E0,-2.310595093E0,1.317859497E1,9.374705200E0,1.633705337E1
5.570203292E0,-2.324216766E0,1.441801758E1,9.430090027E0,1.738412530E1
5.580162292E0,-2.168690186E0,1.615740051E1,8.940009155E0,1.859270212E1
5.590121292E0,-1.654509430E0,1.808344528E1,9.075477448E0,2.030055875E1
5.600080292E0,-1.050515442E0,2.004152344E1,1.025472519E1,2.253720553E1
5.610039292E0,-3.555107117E-1,2.225257553E1,1.166015259E1,2.512494107E1
5.619998292E0,-2.273771667E-1,2.447500397E1,1.304162979E1,2.773376331E1
5.629958292E0,-9.710307312E-1,2.599973328E1,1.383198624E1,2.946613097E1
5.639917292E0,-1.285377045E0,2.689621902E1,1.399724258E1,3.034767853E1
5.649876292E0,-1.645079041E-1,2.762355652E1,1.507245667E1,3.146850628E1
5.659835292E0,-1.377585297E0,2.737791733E1,1.532288589E1,3.140444126E1
5.669794292E0,-1.590442657E0,2.727044083E1,1.553694077E1,3.142615120E1
5.679753292E0,-2.121538239E0,2.678200653E1,1.513547562E1,3.083600850E1
5.689713292E0,-2.264940033E0,2.617561752E1,1.500285141E1,3.025522197E1
5.699672292E0,-2.283950500E0,2.526850388E1,1.488175323E1,2.941394733E1
5.709631292E0,-2.314487000E0,2.407084442E1,1.474374023E1,2.832208109E1
5.719590292E0,-2.530038757E0,2.256826904E1,1.441203003E1,2.689673722E1
5.729549292E0,-2.714305573E0,2.093007568E1,1.372151596E1,2.517370698E1
5.739508292E0,-2.839295654E0,1.924368256E1,1.279733780E1,2.328417430E1
5.749468292E0,-3.026256866E0,1.756133102E1,1.205503143E1,2.151470104E1
5.759427292E0,-3.123105469E0,1.608659775E1,1.133637589E1,1.992600896E1
5.769386292E0,-3.158282318E0,1.484957016E1,1.059137512E1,1.851112390E1
5.779345292E0,-3.176394653E0,1.380070129E1,1.006192612E1,1.737213851E1
5.789304292E0,-3.223247223E0,1.298055679E1,9.630074158E0,1.648097405E1
5.799263292E0,-3.315904541E0,1.227372665E1,9.238638153E0,1.571597989E1
5.809223292E0,-3.536545715E0,1.147034729E1,8.991502075E0,1.499743752E1
5.819182292E0,-3.705993347E0,1.068163742E1,8.721014557E0,1.427893062E1
5.829141292E0,-3.709735565E0,9.995164948E0,8.346643066E0,1.354001148E1
5.839100292E0,-3.498225403E0,9.283993835E0,7.838749237E0,1.264421259E1
5.849059292E0,-3.230432281E0,8.497080231E0,7.225474548E0,1.161221545E1
5.859018292E0,-3.065325623E0,7.793692932E0,6.620133362E0,1.067539397E1
5.868978292E0,-2.849175110E0,7.140601044E0,5.984405365E0,9.742642847E0
5.878937292E0,-2.600093079E0,6.515650635E0,5.344785461E0,8.819349117E0
5.888896292E0,-2.302960968E0,5.890700226E0,4.797224121E0,7.938346027E0
5.898855292E0,-2.066153412E0,5.278173981E0,4.335733795E0,7.136294419E0
5.908814292E0,-1.912123718E0,4.739444275E0,3.971990204E0,6.472654427E0
5.918773292E0,-1.898052979E0,4.226311340E0,3.602857819E0,5.868977519E0
5.928733292E0,-1.882635040E0,3.648961945E0,3.194357300E0,5.202226113E0
5.938692292E0,-1.766476593E0,3.035238190E0,2.784509583E0,4.481808121E0
5.948651292E0,-1.678160248E0,2.480791168E0,2.236349487E0,3.737887862E0
5.958610292E0,-1.729503479E0,1.892664185E0,1.702409821E0,3.077589836E0
5.968569292E0,-1.739682312E0,1.321152649E0,1.346749420E0,2.566256587E0
5.978528292E0,-1.702409821E0,8.434959412E-1,1.016386414E0,2.154698573E0
5.988488292E0,-1.591490479E0,3.718267822E-1,6.982978821E-1,1.777277984E0
5.998447292E0,-1.494791565E0,-1.466949463E-2,3.197351074E-1,1.528675098E0
6.008406292E0,-1.380130005E0,-2.350112915E-1,-3.173400879E-2,1.400355735E0
6.018365292E0,-1.298549652E0,-3.863465881E-1,-3.614982605E-1,1.402203936E0
6.028324292E0,-1.400936737E0,-6.014492798E-1,-7.602690125E-1,1.703635509E0
6.038283292E0,-1.546434174E0,-8.138575745E-1,-1.161285095E0,2.098191096E0
6.048243292E0,-1.687740326E0,-1.077908478E0,-1.543889465E0,2.528625867E0
6.058202292E0,-1.876946869E0,-1.351090393E0,-1.903741150E0,2.995430714E0
6.068161292E0,-1.990261230E0,-1.591191101E0,-2.199975128E0,3.366440175E0
6.078120292E0,-1.988165588E0,-1.805545349E0,-2.569257202E0,3.716702703E0
6.088079292E0,-1.949695587E0,-1.935475159E0,-2.975362701E0,4.049711123E0
6.098038292E0,-1.919907532E0,-2.016606445E0,-3.268303528E0,4.293548001E0
6.107998292E0,-1.865121460E0,-2.039658508E0,-3.515289917E0,4.471705278E0
6.117957292E0,-1.746567993E0,-1.980381775E0,-3.718118134E0,4.560352419E0
6.127916292E0,-1.686542816E0,-1.875300293E0,-3.843856659E0,4.597435358E0
6.137875292E0,-1.696422272E0,-1.784738617E0,-3.788172455E0,4.518118082E0
6.147834292E0,-1.782343597E0,-1.705403595E0,-3.459456024E0,4.248880571E0
6.157793292E0,-2.019001465E0,-1.588796082E0,-2.801424408E0,3.801133859E0
6.167753292E0,-2.416425018E0,-1.373843079E0,-2.106120300E0,3.487448551E0
6.177712292E0,-3.032992859E0,-1.054557037E0,-1.364412689E0,3.488948010E0
6.187671292E0,-4.130061493E0,-6.523434448E-1,-7.589218140E-2,4.181951641E0
6.197630292E0,-4.919819183E0,1.586700439E-1,1.065634003E0,5.036404750E0
6.207589292E0,-4.492008820E0,9.382489014E-1,1.655706940E0,4.878505889E0
6.217548292E0,-2.938090210E0,1.463506622E0,1.817071381E0,3.751796119E0
6.227508292E0,-1.316661987E0,2.000739441E0,1.558409271E0,2.857480806E0
6.237467292E0,-9.490264893E-1,2.868185577E0,1.352587280E0,3.310080382E0
6.247426042E0,-1.795815582E0,4.049678650E0,1.742376709E0,4.760328494E0
6.257385042E0,-2.346819763E0,5.647456055E0,3.042872314E0,6.830841442E0
6.267344042E0,-2.037712555E0,7.509284363E0,4.132007446E0,8.809943793E0
6.277303042E0,-5.554948425E-1,9.446106720E0,4.840783539E0,1.062876719E1
6.287263042E0,1.348845062E0,1.121168518E1,5.273683319E0,1.246326616E1
6.297222042E0,2.476450195E0,1.257834320E1,5.145998840E0,1.381408076E1
6.307181042E0,2.352058868E0,1.345896194E1,4.786147156E0,1.447698319E1
6.317140042E0,1.487456818E0,1.411864014E1,4.757257233E0,1.497264250E1
6.327099042E0,9.982740784E-1,1.460423035E1,4.928800507E0,1.544581398E1
6.337058042E0,1.155147858E0,1.505913437E1,4.873715057E0,1.587025498E1
6.347018042E0,1.808539124E0,1.537018753E1,5.110672302E0,1.629823456E1
6.356977042E0,2.160307617E0,1.537737259E1,5.223387909E0,1.638335430E1
6.366936042E0,1.633852386E0,1.500569550E1,5.292095032E0,1.599520681E1
6.376895042E0,4.339476013E-1,1.458806396E1,5.653443604E0,1.565124102E1
6.386854042E0,-1.017284546E0,1.463297058E1,6.279591522E0,1.595593825E1
6.396813042E0,-1.777403870E0,1.556627975E1,7.237299957E0,1.725823689E1
6.406773042E0,-1.022523651E0,1.654704025E1,7.670798492E0,1.826721778E1
6.416732042E0,2.242337036E-1,1.700733307E1,8.271349640E0,1.891335200E1
6.426691042E0,6.396199036E-1,1.701616470E1,8.853788452E0,1.919240852E1
6.436650042E0,3.326083374E-1,1.663745224E1,8.764274597E0,1.880765681E1
6.446609042E0,-3.318598938E-1,1.572644669E1,8.739426270E0,1.799468888E1
6.456568042E0,-9.780661011E-1,1.470916214E1,8.776100006E0,1.715622323E1
6.466528042E0,-9.129515076E-1,1.388841888E1,8.226443024E0,1.616774642E1
6.476487042E0,-6.438111877E-1,1.323143509E1,7.737260284E0,1.534113959E1
6.486446042E0,-5.611830139E-1,1.270707550E1,7.324269104E0,1.467752064E1
6.496405042E0,-7.593708801E-1,1.212239136E1,6.798412628E0,1.391931861E1
6.506364042E0,-1.230890350E0,1.150956573E1,6.215674438E0,1.313848557E1
6.516323042E0,-1.952090607E0,1.081665665E1,5.853577423E0,1.245291482E1
6.526283042E0,-2.625989227E0,9.892328796E0,5.495821381E0,1.161714427E1
6.536242042E0,-3.441194000E0,8.873397675E0,4.470004578E0,1.051474885E1
6.546201042E0,-3.540587311E0,8.472531281E0,4.619543610E0,1.027909179E1
6.556160042E0,-3.299139404E0,8.115972748E0,4.451892242E0,9.827139919E0
6.566119042E0,-2.270328827E0,5.972579956E0,4.239483948E0,7.668072017E0
6.576078042E0,-2.649190979E0,6.874304810E0,6.711144104E0,9.965627659E0
6.586037042E0,1.754052429E0,1.040127045E1,1.123892853E1,1.541352138E1
6.595997042E0,1.569037170E0,1.038375687E1,8.817713470E0,1.371263487E1
6.605956042E0,1.317859497E0,9.098379822E0,9.449848938E0,1.318396427E1
6.615915042E0,5.153782654E-1,8.289312286E0,9.403146057E0,1.254581479E1
6.625874042E0,-9.943821716E-1,7.535779266E0,9.695338440E0,1.231975456E1
6.635833042E0,-1.998194733E0,6.724316711E0,9.542655945E0,1.184362697E1
6.645792042E0,-2.833757172E0,6.212530975E0,8.524922333E0,1.092245493E1
6.655752042E0,-2.352358246E0,5.926924896E0,8.001011810E0,1.023123737E1
6.665711042E0,-1.174906769E0,5.476960602E0,8.058791656E0,9.814358171E0
6.675670042E0,-4.351451111E-1,5.244194641E0,8.539442139E0,1.003060321E1
6.685629042E0,1.210981750E-1,5.298381958E0,9.261690216E0,1.067082105E1
6.695588042E0,7.032376099E-1,5.278323669E0,9.480086060E0,1.087323667E1
6.705547042E0,7.481442261E-1,5.525160370E0,9.305249634E0,1.084780105E1
6.715507042E0,4.561015320E-1,6.372997284E0,8.810977478E0,1.088376989E1
6.725466042E0,3.519181824E-1,6.722670135E0,8.264763336E0,1.065947715E1
6.735425042E0,1.107696533E-2,6.909182281E0,8.261021118E0,1.076946574E1
6.745384042E0,-6.215075684E-1,6.413862305E0,8.529113617E0,1.068969973E1
6.755343042E0,-2.032024384E0,5.976322174E0,8.258626099E0,1.039473207E1
6.765303042E0,-2.496658173E0,6.086343384E0,7.986641693E0,1.034714083E1
6.775262042E0,-2.299069061E0,6.319109344E0,7.962990875E0,1.042238385E1
6.785221042E0,-1.767973480E0,6.399791565E0,7.827522583E0,1.026416933E1
6.795180042E0,-1.599423981E0,6.458319855E0,7.922874298E0,1.034601322E1
6.805139042E0,-1.275946655E0,6.324049072E0,8.114475861E0,1.036659805E1
6.815098042E0,-6.994953918E-1,6.031707001E0,8.067473602E0,1.009727258E1
6.825057042E0,-4.920268250E-1,5.836961975E0,8.057294769E0,9.961536754E0
6.835017042E0,-6.668632507E-1,5.809718628E0,8.032296753E0,9.935558779E0
6.844976042E0,-7.996371460E-1,5.859714661E0,7.966583405E0,9.921800573E0
6.854935042E0,-8.613088989E-1,5.983507233E0,7.979756012E0,1.001102981E1
6.864894042E0,-9.686357117E-1,6.085744629E0,8.103997650E0,1.018083104E1
6.874853042E0,-1.026714935E0,6.111491089E0,8.083340607E0,1.018552219E1
6.884812042E0,-1.025517426E0,6.059249725E0,7.952362976E0,1.005018757E1
6.894772042E0,-9.494755554E-1,5.963748322E0,7.899822235E0,9.943590359E0
6.904731042E0,-9.169931030E-1,5.852230225E0,7.955506439E0,9.918646967E0
6.914690042E0,-8.903485107E-1,5.750741272E0,7.853119354E0,9.774212461E0
6.924649042E0,-7.616162109E-1,5.648952942E0,7.661368103E0,9.549203621E0
6.934608042E0,-6.738986206E-1,5.616171112E0,7.576195221E0,9.454853322E0
6.944567042E0,-8.150550842E-1,5.655239868E0,7.669750671E0,9.564053958E0
6.954527042E0,-9.943821716E-1,5.656587067E0,7.740703125E0,9.638685492E0
6.964486042E0,-1.027912445E0,5.627697144E0,7.704029388E0,9.595814085E0
6.974445042E0,-8.581654358E-1,5.538332977E0,7.597001953E0,9.440551825E0
6.984404042E0,-8.252339172E-1,5.404361572E0,7.480843506E0,9.265589813E0
6.994363042E0,-9.891430664E-1,5.411846008E0,7.526348877E0,9.322682481E0
7.004322042E0,-9.246272278E-1,5.582341461E0,7.639812927E0,9.507061232E0
7.014282042E0,-8.949888611E-1,5.682782593E0,7.912845154E0,9.783053791E0
7.024241042E0,-8.473878479E-1,5.744454346E0,8.280330963E0,1.011339225E1
7.034200042E0,-7.207511902E-1,5.726491699E0,8.412356415E0,1.020195716E1
7.044159042E0,-6.173162842E-1,5.659431152E0,8.312963104E0,1.007549482E1
7.054118042E0,-5.275030518E-1,5.579647064E0,8.094866638E0,9.845688738E0
7.064077042E0,-4.703219604E-1,5.523962860E0,7.835007019E0,9.598057273E0
7.074037042E0,-4.125421143E-1,5.508395233E0,7.469317474E0,9.289957620E0
7.083996042E0,-5.680686951E-1,5.510490875E0,7.292235718E0,9.157778851E0
7.093955042E0,-8.352630615E-1,5.496569824E0,7.425308990E0,9.276052922E0
7.103914042E0,-9.743238831E-1,5.550158386E0,7.620802460E0,9.477879260E0
7.113873042E0,-9.833052063E-1,5.579197998E0,7.801177368E0,9.641198461E0
7.123832042E0,-9.128018188E-1,5.579048309E0,7.681576080E0,9.537588703E0
7.133792042E0,-1.018032990E0,5.603148193E0,7.692503357E0,9.571116379E0
7.143751042E0,-1.283580780E0,5.484445038E0,8.503965912E0,1.020020359E1
7.153710042E0,-1.243464203E0,5.555098114E0,8.630752258E0,1.033901363E1
7.163669042E0,-1.070573730E0,5.626200256E0,8.350085907E0,1.012542306E1