"Time (s)","Acceleration x (m/s^2)","Acceleration y (m/s^2)","Acceleration z (m/s^2)","Absolute acceleration (m/s^2)"
-2.218666661E-3,-2.193688202E0,7.797285461E0,5.691165161E0,9.899459045E0
7.740333327E-3,-2.161954193E0,7.599097595E0,5.742807770E0,9.767301125E0
1.769933332E-2,-2.006577301E0,7.481292572E0,5.850583649E0,9.706977905E0
2.765833330E-2,-1.885778503E0,7.431895294E0,5.852230225E0,9.645611791E0
3.761733335E-2,-1.866618347E0,7.432643738E0,5.819149017E0,9.622419253E0
4.757633334E-2,-1.807191925E0,7.522157593E0,5.815556488E0,9.678300200E0
5.753533333E-2,-1.788929901E0,7.655230865E0,5.876928864E0,9.815351377E0
6.749433331E-2,-1.828447723E0,7.768994293E0,5.954916687E0,9.957988058E0
7.745333330E-2,-1.836381226E0,7.896978149E0,5.917943573E0,1.003775951E1
8.741233335E-2,-1.927841034E0,7.990234222E0,5.943540344E0,1.014327786E1
9.737133334E-2,-1.951342163E0,7.980354767E0,6.099815369E0,1.023237734E1
1.073293333E-1,-1.892813873E0,7.893235931E0,6.252946930E0,1.024623166E1
1.172883333E-1,-1.734742584E0,7.735014954E0,6.120771790E0,1.001517027E1
1.272473334E-1,-1.440753937E0,7.448061676E0,5.439538422E0,9.334772246E0
1.372063333E-1,-1.257684631E0,7.333100739E0,5.059478760E0,8.997469777E0
1.471653333E-1,-1.322499847E0,7.348818054E0,5.169949036E0,9.081987980E0
1.571243333E-1,-1.428629150E0,7.311246185E0,5.450465698E0,9.230540524E0
1.670833333E-1,-1.455872498E0,7.363337860E0,5.747448120E0,9.453648453E0
1.770423334E-1,-1.450483704E0,7.468868408E0,5.989195404E0,9.682890057E0
1.870013333E-1,-1.477277985E0,7.509733429E0,6.076763306E0,9.772691476E0
1.969603333E-1,-1.615590363E0,7.560178528E0,6.098168793E0,9.846527013E0
2.069193333E-1,-1.878593445E0,7.636070709E0,6.231840820E0,1.003366978E1
2.168783333E-1,-2.086211700E0,7.647447052E0,6.522386627E0,1.026534232E1
2.268373333E-1,-2.228116608E0,7.683971100E0,6.733447723E0,1.045692277E1
2.367963333E-1,-2.246378632E0,7.793692932E0,6.845714264E0,1.061374911E1
2.467543333E-1,-2.261347504E0,7.930059357E0,6.811734924E0,1.069575928E1
2.567133333E-1,-2.864143982E0,8.065976715E0,6.556964722E0,1.078225800E1
2.666723334E-1,-3.811972961E0,8.412805481E0,6.527176666E0,1.130975106E1
2.766313333E-1,-3.577859802E0,8.842112732E0,5.856271820E0,1.119285299E1
2.865903333E-1,-4.534819794E0,8.876092072E0,4.134252777E0,1.079081309E1
2.965493333E-1,-3.403622131E0,9.363328857E0,2.622097321E0,1.030203695E1
3.065083333E-1,-2.673440552E0,9.539512482E0,2.756667480E0,1.028342348E1
3.164673334E-1,-2.306553497E0,9.470655670E0,3.789968719E0,1.045836367E1
3.264263333E-1,-9.476792908E-1,8.663085022E0,5.238356781E0,1.016796538E1
3.363853333E-1,5.749543762E-1,7.428901520E0,6.190526733E0,9.687196269E0
3.463443333E-1,1.197509766E-2,6.878346405E0,6.527176666E0,9.482395684E0
3.563033333E-1,-6.343807983E-1,7.130721588E0,6.747069397E0,9.837305262E0
3.662623334E-1,-1.369801483E0,7.924071808E0,7.154222717E0,1.076337181E1
3.762213333E-1,-2.435734863E0,8.649014282E0,7.564968567E0,1.174593554E1
3.861803333E-1,-4.400249634E0,9.470955048E0,9.209149475E0,1.392370714E1
3.961383333E-1,-4.543352051E0,9.257798309E0,7.509583740E0,1.275706570E1
4.060973334E-1,-2.806663513E0,8.931327209E0,5.397026825E0,1.080619565E1
4.160563333E-1,-3.028202820E0,9.713450775E0,5.337151337E0,1.148940045E1
4.260153333E-1,-3.945495300E0,1.015548157E1,4.277205505E0,1.170449597E1
4.359743333E-1,-2.821033630E0,9.856253815E0,3.455564117E0,1.081872882E1
4.459333333E-1,-2.187251587E0,1.010219238E1,3.749702454E0,1.099539126E1
4.558923334E-1,-1.830094299E0,1.033750305E1,3.432811432E0,1.104524372E1
4.658513333E-1,-1.346899109E0,1.016146912E1,2.481838989E0,1.054652154E1
4.758106250E-1,-1.465751953E0,1.000938538E1,1.944755859E0,1.030137368E1
4.857696250E-1,-2.312091980E0,1.039109161E1,1.870061188E0,1.080822294E1
4.957286250E-1,-2.336491241E0,1.116049164E1,2.609673157E0,1.169727143E1
5.056876250E-1,-1.583257599E0,1.145642624E1,4.430486755E0,1.238489482E1
5.156466250E-1,-6.680607605E-1,1.112770981E1,6.223907318E0,1.276750771E1
5.256056250E-1,4.117936707E-1,1.056113800E1,5.564977570E0,1.194471369E1
5.355646250E-1,2.346221008E0,1.140014328E1,4.581073608E0,1.250816754E1
5.455226250E-1,4.927153931E0,1.372196503E1,5.165308685E0,1.546769485E1
5.554816250E-1,5.732628937E0,1.571132813E1,7.034022675E0,1.814349308E1
5.654406250E-1,5.457800446E0,1.760264511E1,8.594228210E0,2.033473529E1
5.753996250E-1,5.012326813E0,1.908890442E1,9.293873291E0,2.181480627E1
5.853586250E-1,4.162094879E0,1.870180939E1,9.654473419E0,2.145436005E1
5.953176250E-1,2.843786316E0,1.747630783E1,9.231153717E0,1.996804084E1
6.052766250E-1,3.524271240E0,1.802551575E1,7.683971100E0,1.990937261E1
6.152356250E-1,2.955454102E0,1.662757278E1,8.128097534E0,1.874238126E1
6.251946250E-1,1.302142181E0,1.516750900E1,7.771838379E0,1.709240695E1
6.351536250E-1,-3.040177917E-1,1.388752075E1,7.112908630E0,1.560606064E1
6.451126250E-1,-8.077203369E-1,1.322724380E1,6.469546509E0,1.474677669E1
6.550716250E-1,-5.213658142E-1,1.288565414E1,5.388793945E0,1.397680240E1
6.650306250E-1,-2.315684509E-1,1.247954865E1,4.554429016E0,1.328666933E1
6.749896250E-1,-7.439529419E-1,1.164368683E1,3.945495300E0,1.231648660E1
6.849486250E-1,-1.200802917E0,1.055919205E1,3.437900848E0,1.116949536E1
6.949066250E-1,-1.507814484E0,9.260642395E0,2.883753204E0,9.815754410E0
7.048656250E-1,-1.864522705E0,8.005951538E0,1.852248230E0,8.426299808E0
7.148246250E-1,-1.832639008E0,6.722071381E0,1.120719452E0,7.056969709E0
7.247836250E-1,-1.771865387E0,5.407355347E0,3.359014893E-1,5.700160402E0
7.347426250E-1,-1.681004333E0,4.429139557E0,-7.640112305E-1,4.798621254E0
7.447016250E-1,-1.382674713E0,3.539838867E0,-1.679507446E0,4.154875910E0
7.546606250E-1,-1.268761597E0,2.690205688E0,-2.091750183E0,3.636259268E0
7.646196250E-1,-1.369053040E0,2.005230103E0,-2.227218475E0,3.294807449E0
7.745786250E-1,-1.555565186E0,1.400787048E0,-2.481090546E0,3.246197421E0
7.845376250E-1,-1.651964722E0,8.062234497E-1,-2.856809235E0,3.397107990E0
7.944966250E-1,-1.527723083E0,4.135899353E-1,-3.057242432E0,3.442633547E0
8.044556250E-1,-1.100511475E0,1.640588379E-1,-2.918930054E0,3.123810728E0
8.144146250E-1,-7.723937988E-1,-6.586303711E-2,-2.653831329E0,2.764733413E0
8.243736250E-1,-6.821315002E-1,-1.781295776E-1,-2.672392731E0,2.763822794E0
8.343326250E-1,-5.837860107E-1,-1.231938171E-1,-2.482138367E0,2.552840319E0
8.442916250E-1,-3.522175598E-1,-1.463955688E-1,-1.818568268E0,1.858138697E0
8.542506250E-1,-1.350192261E-1,-1.444496155E-1,-1.543141022E0,1.555757081E0
8.642086250E-1,-2.844085693E-1,-2.541714478E-1,-1.600322113E0,1.645151125E0
8.741676250E-1,-6.096821594E-1,-5.542973328E-1,-1.935026093E0,2.103160443E0
8.841266250E-1,-6.222560120E-1,-8.089178467E-1,-2.177970886E0,2.405225106E0
8.940856250E-1,-4.513114929E-1,-1.139430542E0,-2.236499176E0,2.550276963E0
9.040446250E-1,-3.830534363E-1,-1.484313354E0,-2.359842682E0,2.814031548E0
9.140036250E-1,-3.603007507E-1,-1.797761536E0,-2.315983887E0,2.953903271E0
9.239626250E-1,-3.186872864E-1,-1.963616638E0,-2.244133301E0,2.998914163E0
9.339216250E-1,-1.734892273E-1,-1.919608154E0,-2.022294617E0,2.793683857E0
9.438806250E-1,-3.769161987E-1,-1.818418579E0,-1.768572235E0,2.564480396E0
9.538396250E-1,-8.605604553E-1,-1.533560944E0,-1.289867706E0,2.180855833E0
9.637986250E-1,-1.101259918E0,-1.095871124E0,-7.620652771E-1,1.730448039E0
9.737576250E-1,-9.776170349E-1,-7.670050049E-1,-3.152444458E-1,1.281955851E0
9.837166250E-1,-4.688250732E-1,-4.778063965E-1,5.631289673E-1,8.747629025E-1
9.936756250E-1,-6.557862854E-1,-3.861968994E-1,6.280938721E-1,9.867652251E-1
1.003634625E0,-1.184037781E0,-1.945953369E-1,3.755690002E-1,1.257324495E0
1.013593625E0,-1.297651520E0,1.469943237E-1,6.180647278E-1,1.444822067E0
1.023552625E0,-1.023870850E0,3.670367432E-1,5.658233643E-1,1.226043868E0
1.033510625E0,-4.586462402E-1,7.017407227E-1,7.920030212E-1,1.153284527E0
1.043469625E0,-1.704954529E-1,1.274300079E0,1.456620941E0,1.942846869E0
1.053428625E0,-4.971162415E-1,2.288740540E0,2.218985596E0,3.226353187E0
1.063387625E0,-7.126679993E-1,3.501967621E0,2.796185303E0,4.537656349E0
1.073346625E0,-5.992039490E-1,4.893324280E0,3.453917542E0,6.019403148E0
1.083305625E0,5.418731689E-2,6.553372192E0,3.778592377E0,7.564878301E0
1.093264625E0,5.798941040E-1,7.800279236E0,4.040697327E0,8.803855304E0
1.103223625E0,-1.496887207E-4,8.946595459E0,4.812043304E0,1.015860872E1
1.113182625E0,-4.912783813E-1,1.035366943E1,5.550308075E0,1.175779507E1
1.123141625E0,-1.270707550E0,1.247924927E1,6.776707764E0,1.425728333E1
1.133100625E0,-1.908231812E0,1.540760971E1,8.590935059E0,1.774372990E1
1.143059625E0,-1.622326355E0,1.853370895E1,9.747430115E0,2.100339744E1
1.153018625E0,-1.237776031E0,2.145413589E1,1.035905823E1,2.385628060E1
1.162977625E0,-9.057664490E-1,2.430959793E1,1.059062668E1,2.653183631E1
1.172936625E0,-8.919950867E-1,2.659055466E1,1.092727661E1,2.876210400E1
1.182895625E0,-7.744894409E-1,2.820689346E1,1.110750183E1,3.032499414E1
1.192854625E0,-6.959028625E-1,2.923585373E1,1.103041214E1,3.125523022E1
1.202813625E0,-9.310638428E-2,3.025298859E1,1.116632950E1,3.224808369E1
1.212771625E0,4.998106384E-1,3.120126663E1,1.123608444E1,3.316652595E1
1.222730625E0,6.738986206E-1,3.181109848E1,1.138262970E1,3.379296354E1
1.232689625E0,8.261320496E-1,3.218053024E1,1.116603012E1,3.407270535E1
1.242648625E0,9.964778137E-1,3.207440094E1,1.107127716E1,3.394603573E1
1.252607625E0,1.351988525E0,3.157638657E1,1.140238861E1,3.359926380E1
1.262566625E0,1.463356934E0,3.071537704E1,1.168080963E1,3.289402855E1
1.272525625E0,1.024020538E0,2.919618622E1,1.136242172E1,3.134598116E1
1.282484625E0,3.122506714E-1,2.703138794E1,1.088222031E1,2.914131351E1
1.292443625E0,-3.787124634E-2,2.474399460E1,1.033181488E1,2.681441966E1
1.302402625E0,-2.932402039E-1,2.274100983E1,9.796378326E0,2.476304800E1
1.312361625E0,-7.494914246E-1,2.100911133E1,9.470356293E0,2.305714953E1
1.322320625E0,-1.240620117E0,1.961251556E1,9.303303680E0,2.174261632E1
1.332279625E0,-1.265767822E0,1.842458588E1,9.286239166E0,2.067127889E1
1.342238625E0,-1.286574554E0,1.734323456E1,9.234596558E0,1.969062804E1
1.352197625E0,-1.351090393E0,1.631936371E1,9.068442078E0,1.871853944E1
1.362156625E0,-1.524280243E0,1.521615784E1,8.724457397E0,1.760599462E1
1.372115625E0,-1.666933594E0,1.389036484E1,8.522078247E0,1.638129179E1
1.382074625E0,-1.779798889E0,1.235515732E1,8.640931091E0,1.518167601E1
1.392033625E0,-2.224374390E0,1.060514648E1,8.784033508E0,1.394905796E1
1.401991625E0,-2.827320557E0,9.029073944E0,8.338110809E0,1.261118590E1
1.411950625E0,-3.056643677E0,7.738308105E0,7.538922729E0,1.122763728E1
1.421909625E0,-2.896776123E0,6.442003784E0,6.712491302E0,9.744139990E0
1.431868625E0,-2.485281830E0,5.225932617E0,6.221811676E0,8.496936979E0
1.441827625E0,-2.200573883E0,3.962110748E0,5.710025940E0,7.290078411E0
1.451786625E0,-2.096839600E0,2.790497131E0,4.929399261E0,6.040081757E0
1.461745625E0,-2.031126251E0,1.772913208E0,4.062551880E0,4.875758697E0
1.471704625E0,-1.828747101E0,9.648934937E-1,3.355272675E0,3.941216834E0
1.481662708E0,-1.255289612E0,3.445834351E-1,3.034789124E0,3.302186363E0
1.491621708E0,-7.499404907E-1,-3.427871704E-1,2.533331909E0,2.664147959E0
1.501580708E0,-6.179150391E-1,-1.112785950E0,1.834884338E0,2.233139517E0
1.511539708E0,-5.683680725E-1,-1.876348114E0,1.267115021E0,2.334374646E0
1.521498708E0,-4.861889648E-1,-2.444566498E0,5.760021973E-1,2.558136744E0
1.531457708E0,-3.457809448E-1,-2.813100128E0,-2.980302429E-1,2.849898037E0
1.541416708E0,-2.727328491E-1,-3.065625000E0,-1.143921204E0,3.283442640E0
1.551375708E0,1.664538574E-1,-3.109034729E0,-1.906734924E0,3.650950822E0
1.561334708E0,6.316864014E-1,-2.981050873E0,-2.289189606E0,3.811309626E0
1.571293708E0,8.732839966E-1,-2.760110321E0,-2.392474823E0,3.755631731E0
1.581251708E0,9.680369568E-1,-2.552342377E0,-2.515369263E0,3.711957662E0
1.591210708E0,9.153465271E-1,-2.435884552E0,-2.572550354E0,3.659154020E0
1.601169708E0,9.062155151E-1,-2.294728088E0,-2.444716187E0,3.473275226E0
1.611128708E0,9.704319763E-1,-2.164199524E0,-2.335144043E0,3.328422374E0
1.621087708E0,1.039438477E0,-2.053579559E0,-2.510728912E0,3.406080009E0
1.631046708E0,1.115330658E0,-2.165097656E0,-2.795137482E0,3.707344586E0
1.641005708E0,1.126557312E0,-2.385439453E0,-3.083587646E0,4.058074117E0
1.650964708E0,9.666897583E-1,-2.625240784E0,-3.498973846E0,4.479865650E0
1.660923708E0,8.726852417E-1,-2.879412231E0,-3.986210632E0,4.994243640E0
1.670882708E0,7.707472229E-1,-3.097808075E0,-4.264481964E0,5.326938386E0
1.680841708E0,6.563850403E-1,-3.177741852E0,-4.261039124E0,5.355869585E0
1.690800708E0,5.433700562E-1,-3.176394653E0,-4.081712036E0,5.200491050E0
1.700759708E0,3.498225403E-1,-3.078198853E0,-3.595523071E0,4.746100520E0
1.710718708E0,3.046165466E-1,-2.765199738E0,-2.938838654E0,4.046713909E0
1.720677708E0,3.397933960E-1,-2.384990387E0,-2.510579224E0,3.479460696E0
1.730636708E0,2.965333557E-1,-2.284100189E0,-2.328108673E0,3.274925297E0
1.740595708E0,2.829116821E-1,-2.373164978E0,-1.638343048E0,2.897605732E0
1.750554708E0,-6.451583862E-2,-2.716101837E0,-9.824070740E-1,2.889030139E0
1.760513708E0,-6.533912659E-1,-3.139720917E0,-6.798861694E-1,3.278263684E0
1.770471708E0,-9.904902649E-1,-3.221301270E0,-2.877017212E-1,3.382399313E0
1.780430708E0,-1.251098328E0,-3.435505829E0,2.203417969E-1,3.662853783E0
1.790389708E0,-1.245709534E0,-3.460803223E0,8.725355530E-1,3.780247278E0
1.800348708E0,-8.990304565E-1,-3.029849396E0,1.823807373E0,3.648906200E0
1.810307708E0,-3.969744873E-1,-2.085762634E0,3.211421814E0,3.849834357E0
1.820266708E0,-1.428030396E-1,-8.042774963E-1,4.053271179E0,4.134762660E0
1.830225708E0,1.300794983E-1,4.077520752E-1,4.992567902E0,5.010879831E0
1.840184708E0,6.102809143E-1,1.762434998E0,6.923402710E0,7.170224892E0
1.850143708E0,9.231303406E-1,3.143313446E0,8.541986847E0,9.148668118E0
1.860102708E0,3.811074829E-1,4.403542786E0,9.367220764E0,1.035766657E1
1.870061708E0,-6.584806824E-1,6.399043121E0,1.006327332E1,1.194365185E1
1.880020708E0,-1.319955139E0,9.454638977E0,1.159264297E1,1.501738496E1
1.889979708E0,-4.263134766E-1,1.368289627E1,1.412163391E1,1.966784019E1
1.899938708E0,9.523196411E-1,1.818538330E1,1.663071625E1,2.466162609E1
1.909897708E0,1.553768921E0,2.190065735E1,1.860331421E1,2.877735724E1
1.919856708E0,8.607101440E-1,2.420646240E1,1.884865402E1,3.069145488E1
1.929815708E0,-4.093986511E-1,2.563584000E1,1.798974014E1,3.132083412E1
1.939774708E0,-1.167122955E0,2.664593948E1,1.750055740E1,3.190043536E1
1.949732708E0,-1.642085266E0,2.758493683E1,1.705628128E1,3.247371114E1
1.959691708E0,-1.456620941E0,2.882450912E1,1.722198669E1,3.360908949E1
1.969650708E0,-6.240522766E-1,2.982457947E1,1.732721786E1,3.449822402E1
1.979609708E0,5.255570984E-1,3.045461929E1,1.703831863E1,3.490077862E1
1.989568708E0,1.416354675E0,3.071792175E1,1.652773041E1,3.491078128E1
1.999527708E0,1.902843018E0,3.038381653E1,1.577674210E1,3.428852154E1
2.009486708E0,2.489922180E0,2.948628296E1,1.517229904E1,3.325416145E1
2.019445708E0,2.922372894E0,2.822695175E1,1.471799377E1,3.196748988E1
2.029404708E0,2.755170593E0,2.664339478E1,1.403825729E1,3.024126515E1
2.039363708E0,2.382445679E0,2.470372833E1,1.335582642E1,2.818383118E1
2.049322708E0,2.197430420E0,2.264955002E1,1.281500107E1,2.611618404E1
2.059281708E0,1.951791229E0,2.051977890E1,1.230007187E1,2.400338691E1
2.069240708E0,1.574575653E0,1.849928055E1,1.168694687E1,2.193826330E1
2.079199708E0,1.176403656E0,1.674612625E1,1.121916962E1,2.019124654E1
2.089158708E0,7.213499451E-1,1.545595917E1,1.070259384E1,1.881362630E1
2.099117708E0,3.972738647E-1,1.454136108E1,1.021056702E1,1.777258247E1
2.109076708E0,1.552272034E-1,1.389784927E1,9.958640900E0,1.709821156E1
2.119035708E0,-5.613327026E-2,1.348800156E1,9.877359924E0,1.671800156E1
2.128994708E0,-4.227209473E-1,1.317500244E1,9.754615173E0,1.639853346E1
2.138952708E0,-1.003513184E0,1.275168274E1,9.857301636E0,1.614864846E1
2.148911708E0,-1.482367401E0,1.208751389E1,9.893975372E0,1.569063905E1
2.158870708E0,-1.716480560E0,1.137424713E1,9.493558044E0,1.491467223E1
2.168829708E0,-1.971849518E0,1.064062271E1,9.173523560E0,1.418677471E1
2.178788708E0,-2.387535095E0,9.743238831E0,8.727600861E0,1.329669295E1
2.188747708E0,-2.550695801E0,8.946146393E0,8.181686096E0,1.238868725E1
2.198706708E0,-2.364782410E0,8.374185791E0,7.638914795E0,1.157895517E1
2.208665708E0,-2.012864227E0,7.903414764E0,7.211403809E0,1.088668601E1
2.218624708E0,-1.788630524E0,7.454647980E0,6.712491302E0,1.018962782E1
2.228583708E0,-1.643731842E0,6.951993256E0,6.004164276E0,9.331776532E0
2.238542708E0,-1.475481720E0,6.356531525E0,5.549409943E0,8.566124564E0
2.248501708E0,-1.224902802E0,5.757028198E0,5.324278107E0,7.936730933E0
2.258460708E0,-9.584568787E-1,4.975054321E0,4.982239380E0,7.105808492E0
2.268419708E0,-9.874964905E-1,4.112547913E0,4.111649780E0,5.898632347E0
2.278378708E0,-9.169931030E-1,3.484304352E0,3.169059906E0,4.798353244E0
2.288337708E0,-7.111711121E-1,2.933898926E0,2.520608368E0,3.932809912E0
2.298296708E0,-4.308041382E-1,2.439926147E0,1.993255005E0,3.179920962E0
2.308255708E0,-1.091230774E-1,2.070045319E0,1.344055023E0,2.470522085E0
2.318214708E0,2.148033142E-1,1.613345032E0,7.771838379E-1,1.803617857E0
2.328172708E0,3.719764709E-1,1.010847931E0,2.761756897E-1,1.111959103E0
2.338131708E0,3.248245239E-1,3.212319946E-1,-3.576063538E-1,5.801579698E-1
2.348090708E0,2.218386841E-1,-3.372486877E-1,-1.051563263E0,1.126381097E0
2.358049708E0,1.462458801E-1,-1.020428009E0,-1.551373901E0,1.862638494E0
2.368008708E0,2.933898926E-2,-1.583407288E0,-2.133363647E0,2.656930535E0
2.377967708E0,-6.047424316E-2,-1.932331696E0,-2.887046356E0,3.474564660E0
2.387926708E0,-8.472381592E-2,-2.156266022E0,-3.321293335E0,3.960763903E0
2.397885708E0,-1.434017944E-1,-2.271226959E0,-3.592229919E0,4.252428926E0
2.407844708E0,-1.348695374E-1,-2.343975677E0,-3.845952301E0,4.505969471E0
2.417803708E0,-3.906875610E-2,-2.338137817E0,-3.847598877E0,4.502491748E0
2.427762708E0,-5.763015747E-2,-2.254012756E0,-3.766916656E0,4.390165810E0
2.437721708E0,-1.853146362E-1,-2.137405243E0,-3.786825256E0,4.352342841E0
2.447680708E0,-3.195854187E-1,-1.971400452E0,-3.647614746E0,4.158563203E0
2.457639708E0,-4.797523499E-1,-1.817520447E0,-3.546724548E0,4.014074976E0
2.467598708E0,-5.477110291E-1,-1.816622314E0,-3.613934784E0,4.081743332E0
2.477557958E0,-5.026547241E-1,-1.802551575E0,-3.593876495E0,4.051888722E0
2.487516958E0,-4.369413757E-1,-1.786834259E0,-3.465892639E0,3.923787229E0
2.497475958E0,-4.469705200E-1,-1.763333130E0,-3.367846527E0,3.827729954E0
2.507433958E0,-5.331912231E-1,-1.814975739E0,-3.217259674E0,3.732182957E0
2.517392958E0,-6.542893982E-1,-1.844913483E0,-2.782713318E0,3.402248343E0
2.527351958E0,-7.714956665E-1,-1.694925385E0,-2.137554932E0,2.834981254E0
2.537310958E0,-1.130000153E0,-1.505419464E0,-1.388961639E0,2.339316683E0
2.547269958E0,-1.404379578E0,-1.385668488E0,-8.696914673E-1,2.156089609E0
2.557228958E0,-1.759740601E0,-1.419348450E0,-3.842509460E-1,2.293226067E0
2.567187958E0,-2.070943451E0,-1.430425415E0,-2.409988403E-2,2.517042798E0
2.577146958E0,-2.195334778E0,-1.452579346E0,4.337979126E-1,2.667894708E0
2.587105958E0,-2.217339020E0,-1.323248291E0,1.360820160E0,2.918802816E0
2.597064958E0,-2.061363373E0,-8.387059021E-1,2.026336212E0,3.009764939E0
2.607023958E0,-1.560504913E0,-6.616241455E-2,2.750380554E0,3.162933171E0
2.616982958E0,-8.262817383E-1,9.102571106E-1,4.002526703E0,4.187066936E0
2.626941958E0,-8.038284302E-2,2.116149445E0,5.177732849E0,5.594056429E0
2.636900958E0,4.860392761E-1,3.489842834E0,6.028114471E0,6.982363587E0
2.646859958E0,4.746629333E-1,4.693789215E0,6.876550140E0,8.339298767E0
2.656818958E0,-5.628295898E-2,5.357359314E0,7.207212524E0,8.980444252E0
2.666777958E0,-1.146615601E-1,5.788313141E0,7.650440826E0,9.594110752E0
2.676736958E0,2.960842896E-1,6.386469269E0,8.596473541E0,1.071326341E1
2.686695958E0,2.165995789E-1,7.501051483E0,9.718390503E0,1.227842835E1
2.696653958E0,-2.245330811E-2,9.782307587E0,1.164413589E1,1.520789093E1
2.706612958E0,3.727249146E-1,1.283850220E1,1.329565155E1,1.848622224E1
2.716571958E0,1.163530426E0,1.552032532E1,1.442640015E1,2.122157681E1
2.726530958E0,1.637145538E0,1.750474869E1,1.609378281E1,2.383498096E1
2.736489958E0,1.073118439E0,1.911165710E1,1.718411545E1,2.572354649E1
2.746448958E0,6.840774536E-2,2.046903442E1,1.740760071E1,2.687025516E1
2.756407958E0,-7.316784668E-1,2.121478363E1,1.752540573E1,2.752711834E1
2.766366958E0,-1.214274902E0,2.195753906E1,1.770383469E1,2.823178613E1
2.776325958E0,-1.215173035E0,2.312960175E1,1.805560318E1,2.936766808E1
2.786284958E0,-1.077908478E0,2.470432709E1,1.854119339E1,3.090698167E1
2.796243958E0,-1.040785675E0,2.647858749E1,1.885778503E1,3.252406627E1
2.806202958E0,-5.529501343E-1,2.802277634E1,1.893487473E1,3.382471328E1
2.816161958E0,3.209326172E-1,2.862123184E1,1.872875336E1,3.420590756E1
2.826120958E0,1.257984009E0,2.825853607E1,1.822340424E1,3.364847466E1
2.836079958E0,1.690434723E0,2.716999969E1,1.749187546E1,3.235787632E1
2.846038958E0,1.699865112E0,2.565021011E1,1.661065796E1,3.060615589E1
2.855997958E0,1.609453125E0,2.393313080E1,1.559936096E1,2.861337365E1
2.865956958E0,1.792372742E0,2.198178864E1,1.488429794E1,2.660740417E1
2.875915958E0,1.965562592E0,1.996667908E1,1.408091858E1,2.451130306E1
2.885873958E0,1.915716248E0,1.799423080E1,1.311886917E1,2.235099638E1
2.895832958E0,1.699266357E0,1.615799927E1,1.235530701E1,2.041132180E1
2.905791958E0,1.468745728E0,1.470482117E1,1.181642761E1,1.892133561E1
2.915750958E0,1.270408173E0,1.366687958E1,1.133053802E1,1.779827593E1
2.925709958E0,1.138083344E0,1.298025742E1,1.112396759E1,1.713257048E1
2.935668958E0,1.118623810E0,1.250020569E1,1.113639175E1,1.677872709E1
2.945627958E0,7.550299072E-1,1.211415848E1,1.103011276E1,1.640080161E1
2.955586958E0,4.339476013E-1,1.172107590E1,1.076007431E1,1.591700757E1
2.965545958E0,2.568658447E-1,1.114342712E1,1.060514648E1,1.538541777E1
2.975504958E0,1.227447510E-1,1.044333298E1,1.033286270E1,1.469170928E1
2.985463958E0,-1.357676697E-1,9.598489838E0,9.929900665E0,1.381131302E1
2.995422958E0,-4.650828552E-1,8.790320435E0,9.308393097E0,1.281140966E1
3.005381958E0,-6.195616150E-1,8.117619324E0,8.761430511E0,1.196002779E1
3.015340958E0,-7.216493225E-1,7.488327942E0,8.244705048E0,1.116113769E1
3.025299958E0,-7.012916565E-1,6.915020142E0,7.761360168E0,1.041863836E1
3.035258958E0,-7.494914246E-1,6.436165924E0,7.375013580E0,9.817168355E0
3.045217958E0,-8.490344238E-1,6.102958832E0,6.992858276E0,9.320248539E0
3.055176958E0,-9.577084351E-1,5.661676483E0,6.370302887E0,8.576278034E0
3.065135958E0,-1.177152100E0,5.132826233E0,5.701343994E0,7.761244458E0
3.075093958E0,-1.231489105E0,4.650080109E0,5.172344055E0,7.063494423E0
3.085052958E0,-1.313518524E0,4.153412933E0,4.446353760E0,6.224647112E0
3.095011958E0,-1.319356384E0,3.653452606E0,3.643573151E0,5.325790319E0
3.104970958E0,-1.141226807E0,3.163820801E0,3.105591888E0,4.577866497E0
3.114929958E0,-1.151106262E0,2.602637787E0,2.489922180E0,3.781333302E0
3.124888958E0,-1.243763580E0,2.036065979E0,1.635199585E0,2.892471296E0
3.134847958E0,-1.317410431E0,1.570534058E0,9.452842712E-1,2.257367897E0
3.144806958E0,-1.273252258E0,1.259630585E0,4.132905579E-1,1.838110336E0
3.154765958E0,-1.318158875E0,1.077010345E0,-1.817221069E-1,1.711875295E0
3.164724958E0,-1.241667938E0,1.000220032E0,-7.577243042E-1,1.765311729E0
3.174683958E0,-1.060843964E0,9.318122864E-1,-1.347348175E0,1.951668813E0
3.184642958E0,-1.047671356E0,8.379574585E-1,-1.948947144E0,2.366047958E0
3.194601958E0,-9.093589783E-1,7.655081177E-1,-2.367776184E0,2.649396250E0
3.204560958E0,-6.466552734E-1,6.773414612E-1,-2.680176544E0,2.839066890E0
3.214519958E0,-4.191284180E-1,5.269042969E-1,-3.021317139E0,3.095424692E0
3.224478958E0,-4.393363953E-1,3.332070923E-1,-3.525319061E0,3.568181318E0
3.234437958E0,-4.611909485E-1,2.293231201E-1,-4.002826080E0,4.035827401E0
3.244396958E0,-4.562512207E-1,1.348695374E-1,-4.187991028E0,4.214928685E0
3.254354958E0,-4.098477173E-1,5.538482666E-2,-4.170926514E0,4.191380514E0
3.264313958E0,-4.571493530E-1,4.550537109E-2,-4.218976593E0,4.243915617E0
3.274272958E0,-4.769082642E-1,4.490661621E-2,-4.473297729E0,4.498872156E0
3.284231958E0,-4.722679138E-1,-8.412506104E-2,-4.619393921E0,4.644234512E0
3.294190958E0,-5.260061646E-1,-2.444416809E-1,-4.810247040E0,4.845091413E0
3.304149958E0,-6.270460510E-1,-3.577560425E-1,-4.932991791E0,4.985537498E0
3.314108958E0,-6.053411865E-1,-3.543132019E-1,-4.910089417E0,4.959934866E0
3.324067958E0,-6.530918884E-1,-2.483335876E-1,-4.878654785E0,4.928434954E0
3.334026958E0,-6.538403320E-1,-8.741821289E-2,-4.467609558E0,4.516047419E0
3.343985958E0,-4.448748779E-1,2.375559998E-1,-3.911665649E0,3.944042934E0
3.353944958E0,-2.728825378E-1,5.556445312E-1,-3.434607697E0,3.489947815E0
3.363903958E0,-1.857637024E-1,8.256829834E-1,-3.051853638E0,3.167028760E0
3.373862958E0,-2.912942505E-1,1.101259918E0,-2.950813751E0,3.163056677E0
3.383821958E0,-3.439846802E-1,1.230291595E0,-2.573298798E0,2.872944408E0
3.393780958E0,-4.513114929E-1,1.241069183E0,-2.181563416E0,2.550128177E0
3.403739958E0,-8.330177307E-1,1.144370270E0,-1.818867645E0,2.304730215E0
3.413698958E0,-1.230740662E0,1.243015137E0,-1.086291046E0,2.059086556E0
3.423657958E0,-1.481319580E0,1.442250824E0,-8.126600647E-1,2.221443566E0
3.433615958E0,-1.469643860E0,1.603016510E0,-5.682183838E-1,2.247751574E0
3.443574958E0,-1.103954315E0,1.718725891E0,-1.095721436E-1,2.045663676E0
3.453533958E0,-6.891668701E-1,1.802102509E0,3.225791931E-1,1.956165065E0
3.463492958E0,-7.056326294E-1,1.900897064E0,8.916957092E-1,2.215050404E0
3.473451958E0,-1.081051941E0,2.099983063E0,1.582209778E0,2.842884089E0
3.483411458E0,-1.945653992E0,2.344424744E0,1.934277649E0,3.608784679E0
3.493370458E0,-2.635569305E0,2.993475037E0,2.007026367E0,4.464893414E0
3.503329458E0,-2.095492401E0,4.135300598E0,2.121538239E0,5.098305987E0
3.513288458E0,-7.719447327E-1,5.249284058E0,2.733316040E0,5.968408361E0
3.523247458E0,4.578977966E-1,6.431226196E0,4.028722229E0,7.602693179E0
3.533206458E0,8.017327881E-1,7.275919647E0,5.131778412E0,8.939627053E0
3.543165458E0,4.592449951E-1,7.795189819E0,5.987848206E0,9.840234571E0
3.553124458E0,-3.881428528E-1,8.131989441E0,6.512058105E0,1.042529654E1
3.563083458E0,-1.631307678E0,8.926686859E0,6.226901093E0,1.100550772E1
3.573042458E0,-1.441203003E0,1.043405228E1,6.639742584E0,1.245121258E1
3.583001458E0,-1.350192261E-1,1.245260468E1,8.128396912E0,1.487132912E1
3.592960458E0,1.408271484E0,1.492905487E1,9.971663818E0,1.800816446E1
3.602919458E0,2.076631622E0,1.764485733E1,1.170326294E1,2.127486199E1
3.612878458E0,1.766626282E0,2.041963715E1,1.270228546E1,2.411287220E1
3.622836458E0,1.195114746E0,2.254821075E1,1.297142578E1,2.604050680E1
3.632795458E0,7.511380005E-1,2.377446075E1,1.301513489E1,2.711425693E1
3.642754458E0,4.333488464E-1,2.448787720E1,1.280691788E1,2.763803659E1
3.652713458E0,2.613565063E-1,2.519575516E1,1.268387375E1,2.820948490E1
3.662672458E0,1.715432739E-1,2.592039825E1,1.254900421E1,2.879885379E1
3.672631458E0,4.941224670E-1,2.672272980E1,1.263747025E1,2.956440595E1
3.682590458E0,9.422904968E-1,2.732477783E1,1.278955399E1,3.018450076E1
3.692549458E0,1.285676422E0,2.759421753E1,1.246517853E1,3.030634390E1
3.702508458E0,1.365759888E0,2.718556732E1,1.216744766E1,2.981555221E1
3.712467458E0,1.035696259E0,2.611634079E1,1.169787415E1,2.863522625E1
3.722426458E0,9.045689392E-1,2.500639893E1,1.123758133E1,2.743030197E1
3.732385458E0,1.109792175E0,2.381263138E1,1.130568970E1,2.638354926E1
3.742344458E0,1.227746887E0,2.252036865E1,1.110839996E1,2.514102059E1
3.752303458E0,9.509724426E-1,2.091271179E1,1.064810715E1,2.348676327E1
3.762262458E0,4.894821167E-1,1.915057617E1,1.016296600E1,2.168571047E1
3.772221458E0,1.556762695E-2,1.749771332E1,9.640702057E0,1.997782145E1
3.782180458E0,-2.668949890E-1,1.607896362E1,9.215436401E0,1.853452379E1
3.792139458E0,-4.638853455E-1,1.507081009E1,9.032965851E0,1.757666005E1
3.802098458E0,-6.750961304E-1,1.433314407E1,8.691226501E0,1.677594087E1
3.812057458E0,-8.726852417E-1,1.372825195E1,8.588240662E0,1.621679250E1
3.822015458E0,-1.098266144E0,1.321841217E1,8.690478058E0,1.585739631E1
3.831974458E0,-1.325194244E0,1.274210266E1,8.448132019E0,1.534562656E1
3.841933458E0,-1.635648651E0,1.226070374E1,8.119265900E0,1.479603600E1
3.851892458E0,-1.828747101E0,1.168709656E1,7.948171692E0,1.425152536E1
3.861851458E0,-2.019300842E0,1.109417953E1,7.741900635E0,1.367828282E1
3.871810458E0,-2.140848083E0,1.048808990E1,7.357050934E0,1.298882053E1
3.881769458E0,-2.172133026E0,9.881700897E0,7.000492401E0,1.230337630E1
3.891728458E0,-2.329605560E0,9.306596832E0,6.579867096E0,1.163333390E1
3.901687458E0,-2.518512726E0,8.763526154E0,6.249504089E0,1.105434749E1
3.911646458E0,-2.438279572E0,8.340954895E0,6.048472137E0,1.058776421E1
3.921605458E0,-2.124082947E0,7.983049164E0,5.935756531E0,1.017221745E1
3.931564458E0,-1.994302826E0,7.558981018E0,5.662424927E0,9.652900799E0
3.941523458E0,-1.808090057E0,6.941814423E0,5.334157562E0,8.939307246E0
3.951482458E0,-1.770667877E0,6.286177826E0,4.597539368E0,7.986780617E0
3.961441458E0,-1.709145813E0,5.768853607E0,3.592080231E0,7.007416909E0
3.971400458E0,-1.514400787E0,5.288502502E0,2.786605225E0,6.166590398E0
3.981359458E0,-1.383273468E0,4.868176575E0,2.011816406E0,5.446098962E0
3.991318458E0,-1.029109955E0,4.450994110E0,1.439257050E0,4.789767919E0
4.001277458E0,-5.812413025E-1,4.053271179E0,1.030606842E0,4.222439954E0
4.011235458E0,-3.293151855E-1,3.724704437E0,5.945635986E-1,3.786208857E0
4.021194458E0,-2.423460388E-1,3.385060730E0,6.601272583E-2,3.394366720E0
4.031153458E0,-2.291734314E-1,3.041525116E0,-5.378315735E-1,3.097201688E0
4.041112458E0,-1.924996948E-1,2.625989227E0,-1.064436493E0,2.840052922E0
4.051071458E0,-1.930984497E-1,2.126328278E0,-1.579066315E0,2.655561971E0
4.061030458E0,-1.990859985E-1,1.688189392E0,-2.139051819E0,2.732244744E0
4.070989458E0,-1.646575928E-1,1.309925995E0,-2.749183044E0,3.049758293E0
4.080948458E0,-9.175918579E-2,9.773176575E-1,-3.350782013E0,3.491605598E0
4.090907458E0,6.990463257E-2,6.812333679E-1,-3.707490234E0,3.770205485E0
4.100866458E0,1.866618347E-1,3.872447205E-1,-3.899690552E0,3.923313334E0
4.110825458E0,2.767744446E-1,1.389111328E-1,-4.249363403E0,4.260632550E0
4.120784458E0,2.966830444E-1,-7.933502197E-3,-4.625231781E0,4.634744092E0
4.130743458E0,2.067201233E-1,-1.606159973E-1,-4.942721558E0,4.949649190E0
4.140702458E0,1.691482544E-1,-2.977308655E-1,-5.163811798E0,5.175152856E0
4.150661458E0,1.621128845E-1,-3.918850708E-1,-5.347330170E0,5.364121031E0
4.160620458E0,1.655557251E-1,-4.748126221E-1,-5.491630096E0,5.514603960E0
4.170579458E0,1.161584473E-1,-4.716691589E-1,-5.436245270E0,5.457905021E0
4.180538458E0,1.511856079E-2,-4.031117249E-1,-5.359305267E0,5.374465609E0
4.190497458E0,-7.783813477E-2,-2.865042114E-1,-5.333259430E0,5.341516600E0
4.200455458E0,-8.397537231E-2,-2.035766602E-1,-5.351820831E0,5.356349646E0
4.210414458E0,-3.876937866E-2,-1.350192261E-1,-5.218298492E0,5.220188925E0
4.220373458E0,3.367996216E-2,-4.490661621E-3,-5.019960938E0,5.020075928E0
4.230332458E0,3.278182983E-2,1.152603149E-1,-4.758005676E0,4.759514429E0
4.240291458E0,-1.751358032E-2,4.061054993E-1,-4.090992737E0,4.111137309E0
4.250250458E0,1.407073975E-2,8.411009216E-1,-3.574866028E0,3.672508116E0
4.260209458E0,-2.031275940E-1,1.157243500E0,-3.585493927E0,3.773094226E0
4.270168458E0,-5.718109131E-1,1.223256226E0,-3.204985199E0,3.477823118E0
4.280127458E0,-9.310638428E-1,1.259929962E0,-2.529140625E0,2.975038771E0
4.290086458E0,-1.244062958E0,1.540147247E0,-2.043101349E0,2.844997242E0
4.300045458E0,-1.551074524E0,1.890718231E0,-1.836979980E0,3.058617834E0
4.310004458E0,-1.738784180E0,2.230960693E0,-1.429676971E0,3.169311011E0
4.319963458E0,-1.717378693E0,2.762655029E0,-7.984396362E-1,3.349501192E0
4.329922458E0,-1.524429932E0,3.244203644E0,-1.154100037E-1,3.586371895E0
4.339881458E0,-1.427281952E0,3.604205017E0,5.888754272E-1,3.920995007E0
4.349840458E0,-1.440753937E0,3.907474365E0,8.488847351E-1,4.250262711E0
4.359799458E0,-1.508413239E0,3.945345612E0,9.786648560E-1,4.335763761E0
4.369758458E0,-1.789977722E0,3.889960785E0,6.556365967E-1,4.331936576E0
4.379716458E0,-1.429976349E0,4.166884918E0,4.073030090E-1,4.424212701E0
4.389675458E0,-9.366023254E-1,4.679718475E0,5.658233643E-1,4.805948918E0
4.399634458E0,-7.427554321E-1,5.081033936E0,7.315287781E-1,5.186880164E0
4.409593458E0,-6.206094360E-1,5.434299316E0,1.218915253E0,5.603795100E0
4.419552458E0,-4.483177185E-1,5.950276337E0,1.622625732E0,6.183824992E0
4.429511458E0,-2.704875183E-1,6.439608765E0,1.806593170E0,6.693691315E0
4.439470458E0,-9.954299927E-2,6.878346405E0,2.050585785E0,7.178193376E0
4.449429458E0,1.827699280E-1,7.241042175E0,2.727777557E0,7.739952651E0
4.459388458E0,4.243675232E-1,7.863148499E0,3.534300385E0,8.631365553E0
4.469347458E0,3.620970154E-1,9.083261261E0,4.318968658E0,1.006430522E1
4.479306708E0,4.935237122E-1,1.035322037E1,5.447621613E0,1.170936885E1
4.489265708E0,2.808160400E-1,1.177211975E1,6.808591461E0,1.360215346E1
4.499224708E0,3.155438232E-1,1.337513626E1,8.108338623E0,1.564413606E1
4.509183708E0,3.459306335E-1,1.485211487E1,9.069789276E0,1.740592030E1
4.519142708E0,2.647993469E-1,1.651321060E1,9.806257782E0,1.920726255E1
4.529101708E0,3.242257690E-1,1.815140396E1,1.043285477E1,2.093855407E1
4.539060708E0,7.081773376E-1,1.968586304E1,1.078761703E1,2.245901601E1
4.549019708E0,1.129551086E0,2.104144409E1,1.087698120E1,2.371343449E1
4.558978708E0,1.308878174E0,2.216665421E1,1.105076981E1,2.480308920E1
4.568937708E0,1.601220245E0,2.309277832E1,1.141331589E1,2.580899255E1
4.578895708E0,1.914967804E0,2.383867722E1,1.135388947E1,2.647376889E1
4.588854708E0,2.386038208E0,2.441318253E1,1.103056183E1,2.689553780E1
4.598813708E0,2.844834137E0,2.473142075E1,1.079809525E1,2.713549547E1
4.608772708E0,3.191962280E0,2.483470596E1,1.071965836E1,2.723714961E1
4.618731708E0,3.257525940E0,2.483620285E1,1.057595718E1,2.719005917E1
4.628690708E0,3.306773529E0,2.480791168E1,1.030786469E1,2.706694123E1
4.638649708E0,3.328029327E0,2.443518677E1,1.005683670E1,2.663257584E1
4.648608708E0,3.044369202E0,2.374961243E1,9.945318604E0,2.592723735E1
4.658567708E0,2.465522919E0,2.272514282E1,9.815538483E0,2.487681079E1
4.668526708E0,1.896556091E0,2.144305893E1,9.557175751E0,2.355294694E1
4.678485708E0,1.465153198E0,2.007699966E1,9.214238892E0,2.213898796E1
4.688444708E0,8.869056702E-1,1.875105698E1,8.741970978E0,2.070774725E1
4.698403708E0,5.153782654E-1,1.768632111E1,8.486901398E0,1.962394110E1
4.708362708E0,2.918930054E-1,1.682082092E1,8.406967621E0,1.880697537E1
4.718321708E0,9.475296021E-2,1.607881393E1,8.271050262E0,1.808168986E1
4.728280708E0,-2.110610962E-1,1.545730637E1,8.095615082E0,1.745026792E1
4.738239708E0,-5.275030518E-1,1.492725861E1,7.901917877E0,1.689797666E1
4.748198708E0,-6.759942627E-1,1.446876205E1,7.722590790E0,1.641464140E1
4.758157708E0,-8.074209595E-1,1.393856461E1,7.589068451E0,1.589117591E1
4.768116708E0,-9.187893677E-1,1.343366455E1,7.533384247E0,1.542917352E1
4.778074708E0,-9.843530273E-1,1.283416122E1,7.455246735E0,1.487499073E1
4.788033708E0,-1.306932220E0,1.213361801E1,7.180268555E0,1.415941434E1
4.797992708E0,-1.446442108E0,1.146765289E1,6.902895355E0,1.346288312E1
4.807951708E0,-1.378333740E0,1.074824890E1,6.621181183E0,1.269900384E1
4.817910708E0,-1.431173859E0,9.970915375E0,6.176605682E0,1.181600058E1
4.827869708E0,-1.569037170E0,9.139693909E0,5.721551971E0,1.089642324E1
4.837828708E0,-1.721869354E0,8.261919250E0,5.286855927E0,9.958664035E0
4.847787708E0,-1.930086365E0,7.455246735E0,4.678071899E0,9.010565684E0
4.857746708E0,-2.025887146E0,6.761289825E0,3.962110748E0,8.094293077E0
4.867705708E0,-2.011367340E0,6.087391205E0,3.287164307E0,7.204677608E0
4.877664708E0,-1.932032318E0,5.373525696E0,2.952160950E0,6.428279829E0
4.887623708E0,-1.713037720E0,4.636308746E0,2.803969116E0,5.682613820E0
4.897582708E0,-1.557361450E0,3.919299774E0,2.339185638E0,4.822662632E0
4.907541708E0,-1.467398529E0,3.235072632E0,1.647474060E0,3.915753332E0
4.917500708E0,-1.439556427E0,2.580334167E0,8.559201050E-1,3.076206487E0
4.927459708E0,-1.284927979E0,2.069895630E0,1.107696533E-1,2.438806623E0
4.937418708E0,-8.821156311E-1,1.645378418E0,-5.083428955E-1,1.934892923E0
4.947377708E0,-3.504212952E-1,1.193019104E0,-9.328601074E-1,1.554450915E0
4.957336708E0,-8.232879639E-3,6.527925110E-1,-1.382974091E0,1.529321149E0
4.967295708E0,4.954696655E-2,2.782713318E-1,-1.973795471E0,1.993930389E0
4.977253708E0,-2.170486450E-2,1.362167358E-2,-2.514022064E0,2.514152659E0
4.987212708E0,-1.511856079E-1,-2.465373230E-1,-2.946772156E0,2.960929563E0
4.997171708E0,-2.278262329E-1,-4.483177185E-1,-3.413950653E0,3.450790146E0
5.007130708E0,-1.076261902E-1,-5.911207581E-1,-3.803141327E0,3.850310520E0
5.017089708E0,1.438508606E-1,-6.879693604E-1,-3.992497559E0,4.053890929E0
5.027048708E0,3.606001282E-1,-7.450007629E-1,-4.303251343E0,4.382126277E0
5.037007708E0,5.650749207E-1,-7.599696350E-1,-4.640500031E0,4.736148651E0
5.046966708E0,7.716453552E-1,-8.053253174E-1,-4.917723541E0,5.042617401E0
5.056925708E0,8.400531006E-1,-8.339158630E-1,-5.070555725E0,5.206883928E0
5.066884708E0,8.235873413E-1,-8.985813904E-1,-5.223088531E0,5.363431591E0
5.076843708E0,7.747888184E-1,-9.907896423E-1,-5.439239044E0,5.582766627E0
5.086802708E0,7.878117371E-1,-9.999206543E-1,-5.719606018E0,5.859554731E0
5.096761708E0,8.788224792E-1,-9.669891357E-1,-5.780080261E0,5.925936615E0
5.106720708E0,9.868977356E-1,-9.547146606E-1,-5.783074036E0,5.943853340E0
5.116679708E0,9.684860229E-1,-8.828640747E-1,-5.926625519E0,6.069786173E0
5.126638708E0,9.318122864E-1,-7.255412292E-1,-5.914800110E0,6.031545785E0
5.136597708E0,9.027726746E-1,-5.084925842E-1,-5.568270721E0,5.663850460E0
5.146556708E0,8.542735291E-1,-2.719844055E-1,-5.227429504E0,5.303751314E0
5.156515708E0,7.484436035E-1,-3.442840576E-2,-4.732259216E0,4.791203443E0
5.166473708E0,5.053491211E-1,2.923420715E-1,-4.027524719E0,4.069618776E0
5.176432708E0,3.206332397E-1,6.580316162E-1,-3.353326721E0,3.432289525E0
5.186391708E0,2.221380615E-1,1.008153534E0,-2.494113464E0,2.699318588E0
5.196350708E0,1.751358032E-1,1.468596039E0,-1.760788422E0,2.299526634E0
5.206309708E0,1.919009399E-1,2.000440063E0,-1.420096893E0,2.460744116E0
5.216268708E0,2.330653381E-1,2.359393616E0,-6.797364807E-1,2.466394001E0
5.226227708E0,4.311035156E-2,2.451452179E0,1.574725342E-1,2.456882962E0
5.236186708E0,-7.520361328E-1,2.410138092E0,5.426216125E-1,2.582394660E0
5.246145708E0,-1.597927094E0,2.320773926E0,6.984475708E-1,2.902962559E0
5.256104708E0,-2.163900146E0,2.136806488E0,1.114133148E0,3.238780401E0
5.266063708E0,-2.279160461E0,2.192341003E0,1.381327515E0,3.450941493E0
5.276022708E0,-1.533710632E0,2.696791992E0,1.255289612E0,3.346745787E0
5.285981708E0,-1.829196167E-1,3.296894073E0,1.495540009E0,3.624860002E0
5.295940708E0,8.622070313E-1,4.003873901E0,2.096989288E0,4.601279307E0
5.305899708E0,6.638694763E-1,4.854704590E0,2.663112030E0,5.576831091E0
5.315858708E0,-3.022215271E-1,6.203399963E0,3.150797882E0,6.964268537E0
5.325817708E0,-6.691085815E-1,7.714806976E0,3.757785645E0,8.607375089E0
5.335776708E0,-1.215472412E-1,9.009764099E0,4.899611206E0,1.025654975E1
5.345735708E0,6.491999817E-1,1.030951126E1,6.438411255E0,1.217212482E1
5.355693708E0,9.304650879E-1,1.203078186E1,7.666307831E0,1.429607475E1
5.365652708E0,2.240840149E-1,1.401236115E1,8.878936157E0,1.659011711E1
5.375611708E0,-5.162763977E-1,1.613255219E1,9.865085449E0,1.891680978E1
5.385570708E0,-1.029708710E0,1.797896255E1,1.075139236E1,2.097369382E1
5.395529708E0,-1.168769531E0,1.935130875E1,1.141181900E1,2.249597265E1
5.405488708E0,-1.082997894E0,2.022863434E1,1.142828476E1,2.325889559E1
5.415447708E0,-8.556207275E-1,2.061198715E1,1.139235947E1,2.356633097E1
5.425406708E0,-3.582051086E-1,2.088217529E1,1.114582214E1,2.367325299E1
5.435365708E0,-1.523831177E-1,2.083637054E1,1.059631485E1,2.337647207E1
5.445324708E0,-3.936813354E-2,2.045960403E1,1.039648041E1,2.294959154E1
5.455283708E0,1.437011719E-1,2.009915359E1,9.721234589E0,2.232709178E1
5.465242708E0,3.929328918E-1,1.963975891E1,8.944350128E0,2.158415913E1
5.475201708E0,6.676116943E-1,1.889146500E1,8.398884430E0,2.068512545E1
5.485160750E0,6.646179199E-1,1.803165298E1,7.848029938E0,1.967673246E1
5.495119750E0,3.201841736E-1,1.702918762E1,7.355404358E0,1.855256646E1
5.505078750E0,-3.811074829E-1,1.595142883E1,7.200775909E0,1.750555622E1
5.515037750E0,-8.490344238E-1,1.508218643E1,6.983128510E0,1.664203385E1
5.524996750E0,-9.132508850E-1,1.429497345E1,6.698121185E0,1.581281507E1
5.534955750E0,-8.348139954E-1,1.358320358E1,6.430328064E0,1.505155982E1
5.544914750E0,-6.994953918E-1,1.308474014E1,6.194568329E0,1.449387440E1
5.554873750E0,-5.562432861E-1,1.272713379E1,5.818101196E0,1.400498635E1
5.564831750E0,-5.144801331E-1,1.226968506E1,5.373675385E0,1.340470993E1
5.574790750E0,-6.638694763E-1,1.164308807E1,5.077740784E0,1.271949976E1
5.584749750E0,-8.990304565E-1,1.091245743E1,4.837939453E0,1.197061573E1
5.594708750E0,-1.375639343E0,1.007734406E1,4.579726410E0,1.115433283E1
5.604667750E0,-2.070494385E0,9.249116364E0,4.325704651E0,1.041848459E1
5.614626750E0,-2.743345184E0,8.445587311E0,4.036506042E0,9.754346152E0
5.624585750E0,-2.742147675E0,6.717131653E0,5.173391876E0,8.910848165E0
5.634544750E0,-3.418141937E0,5.610932007E0,4.890629883E0,8.190513594E0
5.644503750E0,-2.844983826E0,6.085594940E0,3.552263031E0,7.599142806E0
5.654462750E0,-2.718796234E0,6.354435883E0,3.306773529E0,7.661948807E0
5.664421750E0,-2.941682739E0,6.361920319E0,2.820135498E0,7.555176484E0
5.674380750E0,-3.168610840E0,6.508465576E0,2.696193237E0,7.724614993E0
5.684339750E0,-2.800226898E0,7.881410522E0,4.631069641E0,9.560580972E0
5.694298750E0,-1.799707489E0,7.357200623E0,7.057673492E0,1.035268580E1
5.704257750E0,-1.837878113E0,5.448669434E0,3.638034668E0,6.804490488E0
5.714216750E0,-2.133812714E0,4.580175476E0,4.103416901E0,6.509162338E0
5.724175750E0,-1.653760986E0,5.177134094E0,6.328988800E0,8.342286381E0
5.734134750E0,-1.098715210E0,5.898933105E0,7.037016449E0,9.247928817E0
5.744093750E0,-9.419911194E-1,6.468498688E0,7.899073792E0,1.025300879E1
5.754052750E0,-2.713856506E-1,6.872658234E0,8.301287384E0,1.078046630E1
5.764010750E0,5.128335571E-1,7.489675140E0,8.556955719E0,1.138330897E1
5.773969750E0,9.114546204E-1,7.869285736E0,8.935069427E0,1.194118391E1
5.783928750E0,5.123844910E-1,6.923851776E0,8.885372772E0,1.127617447E1
5.793887750E0,3.397933960E-1,6.139632568E0,8.252788239E0,1.029169866E1
5.803846750E0,7.791297913E-1,6.312223663E0,7.506290588E0,9.838475959E0
5.813805750E0,1.076411591E0,6.709347839E0,7.047644348E0,9.789959203E0
5.823764750E0,1.085542603E0,6.882687378E0,6.711443481E0,9.674361058E0
5.833723750E0,1.142124939E0,6.829398193E0,6.503825226E0,9.499730082E0
5.843682750E0,1.365909576E0,6.787185974E0,6.336473236E0,9.385227514E0
5.853641750E0,1.533860321E0,7.015161896E0,6.334227905E0,9.575367725E0
5.863600750E0,1.399739227E0,7.150330811E0,6.349346466E0,9.664403818E0
5.873559750E0,1.190324707E0,7.270381165E0,6.379433899E0,9.745383115E0
5.883518750E0,9.642947388E-1,7.439679108E0,6.474785614E0,9.909668931E0
5.893477750E0,6.544390869E-1,7.516170044E0,6.417454834E0,9.904788195E0
5.903436750E0,5.041516113E-1,7.519612885E0,6.260131989E0,9.797346544E0
5.913395750E0,6.312373352E-1,7.503895569E0,6.128854980E0,9.709262210E0
5.923354750E0,8.554710388E-1,7.463928680E0,5.878276062E0,9.539192393E0
5.933313750E0,9.114546204E-1,7.347021790E0,5.604495392E0,9.285464302E0
5.943272750E0,7.149133301E-1,7.322622528E0,5.402565308E0,9.127957803E0
5.953231750E0,4.653822327E-1,7.295528870E0,5.385800171E0,9.080097224E0
5.963189750E0,3.227288818E-1,7.273075562E0,5.602699127E0,9.186512916E0
5.973148750E0,2.469863892E-1,7.275171204E0,5.799988861E0,9.307469533E0
5.983107750E0,2.080673218E-1,7.266788635E0,5.918542328E0,9.374361438E0
5.993066750E0,2.384541321E-1,7.181915131E0,6.092480621E0,9.420991744E0
6.003025750E0,9.984237671E-2,7.132517853E0,6.328839111E0,9.536088502E0
6.012984750E0,1.438508606E-1,7.159761200E0,6.445296936E0,9.634558947E0
6.022943750E0,3.412902832E-2,7.248376923E0,6.513554993E0,9.745077293E0
6.032902750E0,-1.344204712E-1,7.373666382E0,6.529122620E0,9.849795275E0
6.042861750E0,-8.038284302E-2,7.410190430E0,6.445296936E0,9.821366310E0
6.052820750E0,-2.739303589E-2,7.412735138E0,6.315666504E0,9.738430879E0
6.062779750E0,-6.197113037E-2,7.386389923E0,6.146518250E0,9.609489222E0
6.072738750E0,-6.406677246E-2,7.338190155E0,5.987249451E0,9.471023983E0
6.082697750E0,-8.607101440E-2,7.309749298E0,5.968688049E0,9.437429738E0
6.092656750E0,-7.454498291E-2,7.298073578E0,5.952222290E0,9.417875827E0
6.102615750E0,-1.190025330E-1,7.251670074E0,6.068081360E0,9.456346645E0
6.112574750E0,-9.505233765E-2,7.180717621E0,6.265820160E0,9.530595090E0
6.122533750E0,-1.342707825E-1,7.184759216E0,6.429729309E0,9.642624779E0
6.132492750E0,-8.292755127E-2,7.229516144E0,6.361321564E0,9.630119038E0
6.142451750E0,4.340972900E-3,7.260352020E0,5.979315948E0,9.405580764E0
6.152410750E0,1.062789917E-2,7.376959534E0,4.677922211E0,8.735136011E0
6.162368750E0,-2.640509033E-1,7.092850342E0,5.651497650E0,9.072908825E0
6.172327750E0,-2.841091919E-1,7.116650848E0,6.160588989E0,9.417021505E0
6.182286750E0,-8.382568359E-2,7.263196106E0,6.380781097E0,9.668268295E0
6.192245750E0,1.478924561E-1,7.384294281E0,6.853947144E0,1.007602430E1
6.202204750E0,2.502795410E-1,7.618108063E0,6.995702362E0,1.034592006E1
6.212163750E0,1.857637024E-1,7.664661255E0,7.055428162E0,1.041924214E1
6.222122750E0,7.903564453E-2,7.672295380E0,6.809639282E0,1.025873044E1
6.232081750E0,1.480421448E-1,7.646698608E0,6.553521881E0,1.007186999E1