"Time (s)","Acceleration x (m/s^2)","Acceleration y (m/s^2)","Acceleration z (m/s^2)","Absolute acceleration (m/s^2)"
3.365000011E-4,1.240620117E0,6.400540009E0,6.992109833E0,9.560107248E0
1.029549999E-2,1.091230774E0,6.482569427E0,6.774612122E0,9.439801925E0
2.025449998E-2,9.172924805E-1,6.462062073E0,6.575077057E0,9.264518877E0
3.021350002E-2,9.400451660E-1,6.546187134E0,6.401138763E0,9.203848563E0
4.017250001E-2,1.087937622E0,6.623276825E0,6.375392303E0,9.257269100E0
5.013150000E-2,1.220412140E0,6.547534332E0,6.424340515E0,9.253743171E0
6.009049999E-2,1.602717133E0,6.464008026E0,6.568490753E0,9.353992342E0
7.004949998E-2,1.743723907E0,6.300997009E0,6.801107025E0,9.433885368E0
8.000850002E-2,1.583556976E0,6.155050507E0,7.108417969E0,9.535297869E0
8.996750001E-2,1.450633392E0,5.863157501E0,7.419620819E0,9.567221447E0
9.992650000E-2,1.390757904E0,5.513035583E0,7.747888184E0,9.610283045E0
1.098855000E-1,1.353784790E0,5.297633514E0,8.035290527E0,9.719235977E0
1.198445000E-1,1.284778290E0,5.330415344E0,8.806786194E0,1.037417303E1
1.298035000E-1,1.058598633E0,5.386249237E0,9.499545593E0,1.097149390E1
1.397625000E-1,9.575587463E-1,5.237907715E0,9.750573578E0,1.110973812E1
1.497215000E-1,1.271605682E0,5.296436005E0,9.463769989E0,1.091934786E1
1.596805000E-1,1.223405914E0,5.309009857E0,9.007518768E0,1.052699872E1
1.696395000E-1,4.899311829E-1,5.275778961E0,9.102571106E0,1.053236331E1
1.795985000E-1,-4.201762390E-1,5.317093048E0,9.426497498E0,1.083083014E1
1.895575000E-1,-7.520361328E-1,5.509592743E0,9.568701782E0,1.106712358E1
1.995165000E-1,-7.634124756E-2,5.884862366E0,9.151669006E0,1.088073888E1
2.094755000E-1,6.565347290E-1,6.200406189E0,8.549171906E0,1.058132388E1
2.194345000E-1,1.165476379E0,6.194418640E0,7.900570679E0,1.010683801E1
2.293935000E-1,1.661395111E0,5.957311707E0,7.255412292E0,9.533666872E0
2.393525000E-1,2.369871826E0,5.646557922E0,6.693181458E0,9.071856859E0
2.493115000E-1,1.879790955E0,5.428760834E0,6.764133911E0,8.874602289E0
2.592705000E-1,7.385641479E-1,5.451214142E0,7.359296265E0,9.188060412E0
2.692295000E-1,5.628295898E-1,5.589825897E0,7.879015503E0,9.676870155E0
2.791885000E-1,4.089495850E-1,5.851631470E0,8.284522247E0,1.015096742E1
2.891475000E-1,-9.071136475E-2,6.058501282E0,8.572523346E0,1.049770560E1
2.991075000E-1,-7.333250427E-1,5.993087311E0,8.687933350E0,1.057993606E1
3.090665000E-1,-1.696571960E0,5.946234741E0,8.587641907E0,1.058223311E1
3.190255000E-1,-1.720971222E0,6.034700775E0,8.356223145E0,1.045015888E1
3.289845000E-1,-6.878196716E-1,6.103557587E0,7.957452393E0,1.005224153E1
3.389435000E-1,-2.493814087E-1,6.172414398E0,8.333919525E0,1.037377006E1
3.489025000E-1,-3.098556519E-1,6.251300354E0,8.953481140E0,1.092426616E1
3.588615000E-1,-4.173321533E-1,6.326444092E0,9.265282745E0,1.122691076E1
3.688205000E-1,-7.342231750E-1,6.152655487E0,8.527916107E0,1.054132849E1
3.787795000E-1,-1.939516754E0,5.607040100E0,7.450307007E0,9.524058926E0
3.887385000E-1,-1.688039703E0,6.463858337E0,7.109465790E0,9.755790407E0
3.986975000E-1,-7.818241882E-1,7.460785217E0,5.664670258E0,9.400162459E0
4.086565000E-1,-1.429826660E0,7.705077209E0,5.411846008E0,9.523691317E0
4.186155000E-1,-1.898651733E0,8.388106842E0,5.555696869E0,1.023870023E1
4.285745000E-1,-2.080373840E0,9.523944855E0,5.975723419E0,1.143427966E1
4.385335000E-1,-1.572330322E0,1.016236725E1,7.417974243E0,1.267960065E1
4.484925000E-1,-1.931283875E0,1.031430130E1,8.265511780E0,1.335789481E1
4.584515000E-1,-2.964585114E0,1.022104523E1,8.380472717E0,1.354587957E1
4.684105000E-1,-3.151097260E0,1.010458740E1,8.633446655E0,1.365900808E1
4.783695000E-1,-2.072739716E0,1.043719574E1,9.066346436E0,1.397962598E1
4.883285000E-1,-1.295256500E0,1.088985443E1,9.145382080E0,1.427951793E1
4.982875000E-1,-2.448907471E-1,1.156569901E1,9.875413971E0,1.521016654E1
5.082465000E-1,1.143771515E0,1.252026398E1,1.206476120E1,1.742480089E1
5.182055000E-1,1.791324921E0,1.306348434E1,1.422596695E1,1.939694831E1
5.281645000E-1,1.702709198E0,1.361957794E1,1.550490738E1,2.070734833E1
5.381235000E-1,1.640438690E0,1.477786926E1,1.541838730E1,2.141969015E1
5.480825000E-1,1.302291870E0,1.575713287E1,1.461425949E1,2.153043848E1
5.580415000E-1,6.424639893E-1,1.438703201E1,1.393332550E1,2.003838840E1
5.680005000E-1,2.370171204E0,1.603360794E1,1.344593903E1,2.105914460E1
5.779595000E-1,3.015030212E0,1.552661224E1,1.420351364E1,2.125807834E1
5.879185000E-1,2.287243652E0,1.399230286E1,1.439661209E1,2.020590167E1
5.978775000E-1,1.602417755E0,1.314177155E1,1.331556015E1,1.877706165E1
6.078365000E-1,1.322799225E0,1.210787155E1,1.223226288E1,1.726205684E1
6.177955000E-1,1.817370758E0,1.134206406E1,1.164967438E1,1.636032294E1
6.277545000E-1,2.121538239E0,1.073851913E1,1.085033661E1,1.541254431E1
6.377135000E-1,1.918560333E0,1.022179367E1,1.004890320E1,1.446189459E1
6.476725000E-1,1.121617584E0,9.698332214E0,9.480834503E0,1.360889035E1
6.576315000E-1,2.637515259E-1,8.969946899E0,9.299561462E0,1.292328734E1
6.675916250E-1,4.595443726E-2,8.084837494E0,8.945547638E0,1.205775815E1
6.775506250E-1,3.969744873E-1,7.031627655E0,8.457263031E0,1.100575641E1
6.875096250E-1,4.984634399E-1,5.991590424E0,7.607779541E0,9.696696920E0
6.974686250E-1,5.471122742E-1,5.492827606E0,6.144572296E0,8.259918623E0
7.074276250E-1,6.792874146E-1,4.968318329E0,5.551954651E0,7.481297939E0
7.173866250E-1,3.911366272E-1,4.365671539E0,4.990921326E0,6.642392004E0
7.273456250E-1,-1.669029236E-1,4.171375580E0,4.120631104E0,5.865818912E0
7.373046250E-1,-8.943901062E-1,3.739074554E0,3.384162598E0,5.121832550E0
7.472636250E-1,-1.546733551E0,3.177292786E0,2.901566162E0,4.572380159E0
7.572226250E-1,-1.837429047E0,2.692301331E0,2.263742523E0,3.968521408E0
7.671816250E-1,-1.768871613E0,2.259850616E0,1.418001251E0,3.201024701E0
7.771406250E-1,-1.354682922E0,1.894310760E0,6.676116943E-1,2.422660614E0
7.870996250E-1,-8.431965637E-1,1.437760162E0,3.356021118E-1,1.700224546E0
7.970586250E-1,-3.841012573E-1,8.274792480E-1,3.082090759E-1,9.629374415E-1
8.070176250E-1,-1.926493835E-1,3.914360046E-1,6.571334839E-2,4.411962997E-1
8.169766250E-1,-2.056723022E-1,1.160087585E-1,-6.988966370E-1,7.377097242E-1
8.269356250E-1,-3.520678711E-1,-8.771759033E-2,-1.612746277E0,1.653056779E0
8.368946250E-1,-7.066804504E-1,-3.094065857E-1,-2.102976837E0,2.240009212E0
8.468536250E-1,-9.833052063E-1,-5.453160095E-1,-2.124382324E0,2.403592923E0
8.568126250E-1,-1.063538361E0,-7.560777283E-1,-1.797312469E0,2.221058191E0
8.667716250E-1,-1.063987427E0,-9.487271118E-1,-1.582060089E0,2.129569558E0
8.767306250E-1,-6.059399414E-1,-9.684860229E-1,-1.594334564E0,1.961384993E0
8.866896250E-1,-1.772314453E-1,-8.440946960E-1,-1.876048737E0,2.064816143E0
8.966486250E-1,1.417552185E-1,-9.178912354E-1,-2.424208832E0,2.596036849E0
9.066076250E-1,3.603007507E-1,-1.272952881E0,-2.913990326E0,3.200244567E0
9.165666250E-1,-2.918930054E-2,-1.694626007E0,-3.202889557E0,3.623687463E0
9.265256250E-1,2.170486450E-2,-1.788630524E0,-2.511926422E0,3.083738738E0
9.364846250E-1,3.960763550E-1,-1.425635376E0,-1.647024994E0,2.214046981E0
9.464436250E-1,5.424719238E-1,-8.041278076E-1,-1.478625183E0,1.768397509E0
9.564026250E-1,5.231620789E-1,-3.505709839E-1,-9.990225220E-1,1.180950708E0
9.663616250E-1,-1.610650635E-1,-1.233435059E-1,-4.676275635E-1,5.097363174E-1
9.763206250E-1,-4.767585754E-1,5.062472534E-1,3.890409851E-1,7.968299122E-1
9.862806250E-1,-4.547543335E-1,1.150806885E0,6.744973755E-1,1.409292269E0
9.962396250E-1,-2.035766602E-1,1.630708923E0,1.056502991E0,1.953676948E0
1.006198625E0,-4.640350342E-3,2.019001465E0,1.775008850E0,2.688316363E0
1.016157625E0,-5.221142578E-1,1.938917999E0,2.105671234E0,2.909614691E0
1.026116625E0,-1.259331207E0,1.645977173E0,2.560275879E0,3.293959399E0
1.036075625E0,-1.463656311E0,1.649869080E0,2.709365845E0,3.493568528E0
1.046034625E0,-1.312620392E0,1.826052704E0,2.201022949E0,3.146735259E0
1.055993625E0,-1.249601440E0,2.312990112E0,1.928888855E0,3.260680793E0
1.065952625E0,-1.271905060E0,3.157833252E0,2.133962402E0,4.017891096E0
1.075911625E0,-1.858684845E0,4.384382629E0,2.522554321E0,5.388951725E0
1.085870625E0,-2.090253296E0,5.792055359E0,2.820135498E0,6.772756333E0
1.095829625E0,-1.821412354E0,7.339836731E0,2.372715912E0,7.925940133E0
1.105788625E0,-4.357438660E-1,8.887618103E0,1.602417755E0,9.041425271E0
1.115747625E0,9.346563721E-1,1.048105453E1,1.516945496E0,1.063142560E1
1.125706625E0,1.213227081E0,1.205413330E1,1.669328613E0,1.222950153E1
1.135665625E0,-1.197509766E-3,1.372840164E1,2.314187622E0,1.392208596E1
1.145624625E0,-2.286345520E0,1.580667984E1,3.422033844E0,1.633367133E1
1.155583625E0,-3.727698212E0,1.866812943E1,4.220473480E0,1.949890219E1
1.165542625E0,-3.575315094E0,2.189167603E1,4.763843536E0,2.268749793E1
1.175501625E0,-2.274819489E0,2.508678177E1,5.934559021E0,2.587934338E1
1.185460625E0,-7.165599060E-1,2.806184509E1,6.901548157E0,2.890695375E1
1.195419625E0,3.252735901E-1,3.051359665E1,7.358547821E0,3.139002404E1
1.205378625E0,7.206015015E-1,3.381138885E1,7.617060242E0,3.466625001E1
1.215337625E0,5.601351929E-1,3.395434158E1,7.831414490E0,3.485028144E1
1.225296625E0,1.384620667E-1,3.304737762E1,6.671476593E0,3.371434323E1
1.235255625E0,2.514770508E-1,3.273138474E1,5.875731354E0,3.325554099E1
1.245214625E0,2.516866150E0,3.171275299E1,6.566694489E0,3.248314631E1
1.255173625E0,2.529739380E0,3.114453461E1,6.542744293E0,3.192474150E1
1.265132625E0,2.489173737E0,3.126488434E1,5.832022247E0,3.190143354E1
1.275091625E0,2.671045532E0,2.950110214E1,6.040538635E0,3.023140121E1
1.285051625E0,1.307381287E0,2.719649460E1,6.438860321E0,2.797887572E1
1.295010625E0,6.741979980E-1,2.505609558E1,7.100484467E0,2.605147497E1
1.304969625E0,7.903564453E-2,2.286120987E1,7.207960968E0,2.397072933E1
1.314928625E0,-4.670288086E-1,2.091630432E1,7.025939484E0,2.206974689E1
1.324887625E0,-9.604028320E-1,1.891646301E1,6.760242004E0,2.011108695E1
1.334846625E0,-1.042881317E0,1.702095474E1,6.372398529E0,1.820461383E1
1.344805625E0,-8.786727905E-1,1.512245270E1,5.887407074E0,1.625183693E1
1.354764625E0,-9.746232605E-1,1.335777237E1,5.226830750E0,1.437705578E1
1.364723625E0,-1.209933929E0,1.168065994E1,4.611310730E0,1.261609858E1
1.374682625E0,-9.243278503E-1,1.014620087E1,4.565505981E0,1.116439066E1
1.384641625E0,-4.728666687E-1,8.786578217E0,5.092410278E0,1.016662196E1
1.394600625E0,-3.417393494E-1,7.472311249E0,5.294340363E0,9.164183600E0
1.404559625E0,-4.171824646E-1,6.307882690E0,5.192851410E0,8.181022614E0
1.414518625E0,-8.060737610E-1,5.135670319E0,4.994813232E0,7.209231842E0
1.424477625E0,-1.188827820E0,3.761976929E0,4.830754395E0,6.237144380E0
1.434436625E0,-1.366807709E0,2.340233459E0,4.348157959E0,5.123605527E0
1.444395625E0,-1.320254517E0,1.206640778E0,3.665876770E0,4.078934475E0
1.454354625E0,-1.184636536E0,3.535647583E-1,2.719993744E0,2.987764671E0
1.464313625E0,-1.003513184E0,-3.945794678E-1,1.690135345E0,2.004816488E0
1.474272625E0,-9.268725586E-1,-1.099463654E0,8.705895996E-1,1.681023294E0
1.484231625E0,-8.982820129E-1,-1.760638733E0,2.133064270E-1,1.988028912E0
1.494190625E0,-1.070573730E0,-2.361040192E0,-3.124003601E-1,2.611174618E0
1.504149625E0,-1.287622375E0,-2.907853088E0,-7.348219299E-1,3.263976751E0
1.514108625E0,-1.375639343E0,-3.346441040E0,-1.263672180E0,3.832482044E0
1.524067625E0,-1.490151215E0,-3.561543732E0,-1.818268890E0,4.267463667E0
1.534026625E0,-1.390009460E0,-3.681294708E0,-2.117646332E0,4.468610860E0
1.543985625E0,-9.409432983E-1,-3.667223969E0,-1.968706055E0,4.267283616E0
1.553944625E0,-4.354444885E-1,-3.427272949E0,-1.869163055E0,3.928050700E0
1.563904625E0,-6.855743408E-2,-3.174748077E0,-2.071691895E0,3.791521170E0
1.573863625E0,1.975891113E-1,-3.024460602E0,-2.144590302E0,3.712905998E0
1.583822625E0,2.776725769E-1,-2.931204529E0,-2.223476257E0,3.689567551E0
1.593781625E0,3.266207886E-1,-2.876119080E0,-2.584076385E0,3.880231033E0
1.603740625E0,3.348536682E-1,-2.932402039E0,-2.807112579E0,4.073203865E0
1.613699625E0,3.650907898E-1,-2.927013245E0,-2.772235107E0,4.047960636E0
1.623658625E0,3.986210632E-1,-2.828817444E0,-3.055146790E0,4.182705917E0
1.633617625E0,2.978805542E-1,-2.683170319E0,-3.328927460E0,4.286011411E0
1.643576625E0,5.104385376E-2,-2.494712219E0,-2.982697449E0,3.888788835E0
1.653535625E0,-5.528004456E-1,-2.156266022E0,-2.718347168E0,3.513471619E0
1.663494667E0,-1.032702484E0,-1.667831726E0,-2.818039856E0,3.433582053E0
1.673453667E0,-1.331930237E0,-1.261426849E0,-2.608775024E0,3.189191587E0
1.683412667E0,-1.742975464E0,-8.897497559E-1,-1.671424255E0,2.573572835E0
1.693371667E0,-1.735191650E0,-3.826043701E-1,-1.168619843E0,2.126722479E0
1.703330667E0,-1.556014252E0,2.402503967E-1,-1.508562927E0,2.180518908E0
1.713289667E0,-1.400487671E0,8.743318176E-1,-1.116079102E0,1.992850823E0
1.723248667E0,-1.382674713E0,1.649120636E0,-3.188369751E-2,2.152302210E0
1.733207667E0,-1.498683472E0,2.441273346E0,2.806663513E-1,2.878305282E0
1.743166667E0,-2.190095673E0,3.124003601E0,3.420387268E-1,3.830523208E0
1.753125667E0,-2.909799042E0,4.404590607E0,1.134041748E0,5.399388814E0
1.763084667E0,-3.076252899E0,5.861211548E0,1.224902802E0,6.731828844E0
1.773043667E0,-2.886447601E0,7.520061951E0,1.131047974E0,8.134013832E0
1.783002667E0,-2.267933807E0,9.197174377E0,1.460961914E0,9.584672660E0
1.792961667E0,-1.660646667E0,1.048479675E1,1.864971771E0,1.077807172E1
1.802920667E0,-1.327289886E0,1.178379547E1,1.758094025E0,1.198792846E1
1.812879667E0,-1.029109955E0,1.344204712E1,7.984396362E-1,1.350500662E1
1.822839667E0,-4.013154602E-1,1.549053726E1,-1.704954529E-1,1.549667279E1
1.832798667E0,1.109193420E-1,1.762494873E1,-6.424639893E-1,1.763700317E1
1.842757667E0,5.246589661E-1,2.024300446E1,-7.716453552E-1,2.026449933E1
1.852716667E0,7.568261719E-1,2.290162582E1,-1.326242065E-1,2.291451157E1
1.862675667E0,8.988807678E-1,2.564721634E1,1.158141632E0,2.568908299E1
1.872634667E0,1.630708923E0,2.862437531E1,1.635798340E0,2.871741474E1
1.882593667E0,1.484612732E0,3.209041763E1,2.114353180E0,3.219424589E1
1.892552667E0,2.918930054E0,3.878045563E1,4.115990753E0,3.910735572E1
1.902511667E0,6.809788971E0,4.658941681E1,4.167932739E0,4.726857992E1
1.912470667E0,4.044140167E0,3.564417755E1,5.148992615E0,3.624051032E1
1.922429667E0,1.819316711E0,3.083752304E1,-3.458408203E0,3.108413306E1
1.932388667E0,1.761836243E0,3.029789520E1,-3.522175598E0,3.055277797E1
1.942347667E0,1.845661926E0,2.794643509E1,1.488953705E0,2.804686587E1
1.952306667E0,1.282083893E0,2.658366898E1,9.051676941E-1,2.662995539E1
1.962265667E0,6.596781921E-1,2.470672211E1,7.072792053E-1,2.472564532E1
1.972224667E0,3.246748352E-1,2.270134232E1,1.239572296E0,2.273747779E1
1.982183667E0,-1.496887207E-2,2.118858810E1,1.489103394E0,2.124085495E1
1.992142667E0,-3.260220337E-1,1.982956421E1,2.279459839E0,1.996281153E1
2.002101667E0,-5.959107971E-1,1.867815857E1,3.221750336E0,1.896334339E1
2.012060667E0,-9.045689392E-1,1.758558060E1,3.468587036E0,1.794719995E1
2.022020667E0,-1.017733612E0,1.628209122E1,3.657943268E0,1.671893612E1
2.031979667E0,-1.352587280E0,1.482082993E1,3.858077087E0,1.537436993E1
2.041938667E0,-1.539398804E0,1.337768097E1,3.931125183E0,1.402803771E1
2.051897667E0,-1.573228455E0,1.186178329E1,3.938908997E0,1.259729950E1
2.061856667E0,-1.571432190E0,1.027074188E1,3.842958527E0,1.107817080E1
2.071815667E0,-1.532213745E0,8.699160004E0,3.621269531E0,9.546552087E0
2.081774667E0,-1.657203827E0,7.305707703E0,3.200644226E0,8.146398776E0
2.091733667E0,-1.835632782E0,6.116730194E0,2.529739380E0,6.869025936E0
2.101692667E0,-1.760938110E0,5.053042145E0,1.933229828E0,5.689597131E0
2.111651667E0,-1.541195068E0,3.962410126E0,1.590442657E0,4.539326392E0
2.121610667E0,-1.273102570E0,3.053500214E0,1.141077118E0,3.499530068E0
2.131569667E0,-1.010099487E0,2.304308167E0,6.749464417E-1,2.604935661E0
2.141528667E0,-9.237290955E-1,1.631906433E0,2.454895020E-1,1.891205738E0
2.151487667E0,-8.485853577E-1,1.046473846E0,-1.600172424E-1,1.356764585E0
2.161446667E0,-7.177574158E-1,4.634362793E-1,-3.689826965E-1,9.306433921E-1
2.171405667E0,-6.629713440E-1,-2.511776733E-1,-6.072871399E-1,9.334982040E-1
2.181364667E0,-6.988966370E-1,-9.148974609E-1,-9.846524048E-1,1.514937039E0
2.191323667E0,-7.405101013E-1,-1.388213196E0,-1.359173584E0,2.079144997E0
2.201282667E0,-7.978408813E-1,-1.819616089E0,-1.654359741E0,2.585432060E0
2.211241667E0,-8.596623230E-1,-2.274520111E0,-1.822609863E0,3.038810254E0
2.221200667E0,-6.884184265E-1,-2.590962067E0,-1.980980530E0,3.333359900E0
2.231160667E0,-4.679269409E-1,-2.831960907E0,-2.285297699E0,3.668997652E0
2.241119667E0,-4.333488464E-1,-2.988984375E0,-2.725532227E0,4.068211491E0
2.251078667E0,-4.248165894E-1,-3.122057648E0,-2.949316864E0,4.315806188E0
2.261037667E0,-3.388952637E-1,-3.306773529E0,-2.909050598E0,4.417258941E0
2.270996667E0,-3.143463135E-1,-3.459905090E0,-3.110830994E0,4.663370703E0
2.280955667E0,-4.385879517E-1,-3.614084473E0,-3.482059021E0,5.037727761E0
2.290914667E0,-5.263055420E-1,-3.808081055E0,-3.707939301E0,5.341094710E0
2.300873667E0,-6.752458191E-1,-4.010460205E0,-3.958817596E0,5.675560301E0
2.310832667E0,-6.114784241E-1,-4.120631104E0,-4.136049042E0,5.870298819E0
2.320791667E0,-4.914280701E-1,-4.111051025E0,-4.162394257E0,5.870925653E0
2.330750667E0,-6.027964783E-1,-4.132306824E0,-4.328698425E0,6.014728035E0
2.340709667E0,-8.252339172E-1,-4.061054993E0,-4.518354034E0,6.130962555E0
2.350668667E0,-1.001567230E0,-3.850143585E0,-4.014501801E0,5.651810971E0
2.360627667E0,-1.273401947E0,-3.560795288E0,-3.054098969E0,4.860898694E0
2.370586667E0,-1.533560944E0,-2.874771881E0,-2.358046417E0,4.022002666E0
2.380545667E0,-1.274000702E0,-1.945803680E0,-2.685415649E0,3.552560620E0
2.390504667E0,-1.046024780E0,-1.324445801E0,-3.386856995E0,3.784061947E0
2.400463667E0,-5.760021973E-1,-8.819659424E-1,-3.931424561E0,4.070103381E0
2.410422667E0,1.038839722E-1,-6.087840271E-1,-4.073778534E0,4.120325402E0
2.420382667E0,3.923341370E-1,-3.930825806E-1,-3.820804596E0,3.860956844E0
2.430341667E0,-7.149133301E-1,3.619473267E-1,-2.631228333E0,2.750539851E0
2.440300667E0,-2.470163269E0,2.409838715E0,-3.706292725E-1,3.470791734E0
2.450259667E0,-3.715872803E0,5.311255188E0,1.438209229E0,6.639697895E0
2.460218667E0,-3.492088165E0,8.164471893E0,2.791844330E0,9.308473334E0
2.470177667E0,-2.284549255E0,1.084075653E1,3.936513977E0,1.175743636E1
2.480136667E0,-6.161187744E-1,1.290002426E1,4.464765472E0,1.366471218E1
2.490095667E0,-8.307723999E-2,1.440409653E1,4.549938354E0,1.510585442E1
2.500054667E0,-4.080514526E-1,1.584889206E1,3.778891754E0,1.629827931E1
2.510013667E0,-1.167572021E0,1.670645874E1,2.289339294E0,1.690296017E1
2.519972667E0,-1.384171600E0,1.748977982E1,1.454674988E0,1.760467007E1
2.529931667E0,-6.514453125E-1,1.850422028E1,1.078656921E0,1.854707658E1
2.539890667E0,-6.854246521E-1,1.958916412E1,8.310717773E-1,1.961876241E1
2.549849667E0,-2.926414490E-1,2.135219788E1,8.843609619E-1,2.137250775E1
2.559808667E0,1.118923187E0,2.305640396E1,8.276289368E-1,2.309837056E1
2.569767667E0,2.249821472E0,2.472049347E1,1.316212921E0,2.485753227E1
2.579726667E0,8.623716888E0,4.020459412E1,4.270768890E0,4.134026304E1
2.589685667E0,6.700965271E0,4.138788345E1,1.094209579E1,4.333115845E1
2.599645667E0,-3.793112183E-1,3.150004532E1,4.047133942E0,3.176123463E1
2.609604667E0,-2.626288605E0,2.637066193E1,-6.668033752E0,2.732712712E1
2.619563667E0,-1.409319305E0,2.485236923E1,-7.092550964E0,2.588301985E1
2.629522667E0,4.716691589E-1,2.171938431E1,-2.440973969E0,2.186120949E1
2.639481667E0,1.318009186E0,2.167941742E1,-1.291963348E0,2.175783668E1
2.649440667E0,1.863624573E0,2.201965988E1,3.601510620E-1,2.210131731E1
2.659399667E0,1.907034302E0,2.133453461E1,2.015558624E0,2.151421910E1
2.669358250E0,1.287322998E0,2.024090881E1,1.625469818E0,2.034683617E1
2.679317250E0,5.795947266E-1,1.938468933E1,6.906637573E-1,1.940564678E1
2.689276250E0,2.499801636E-1,1.875928986E1,8.378077698E-1,1.877965303E1
2.699235250E0,-4.790039063E-2,1.812520844E1,1.197210388E0,1.816476777E1
2.709194250E0,-3.604504395E-1,1.762644562E1,1.560205536E0,1.769903249E1
2.719153250E0,-6.237528992E-1,1.686602692E1,1.965263214E0,1.699159178E1
2.729112250E0,-7.973918152E-1,1.589843903E1,2.233206024E0,1.607430889E1
2.739071250E0,-7.936495972E-1,1.482277588E1,2.156415710E0,1.499982310E1
2.749030250E0,-6.245013428E-1,1.376402756E1,2.102677460E0,1.393770817E1
2.758989250E0,-4.451742554E-1,1.273192383E1,2.593057709E0,1.300092354E1
2.768948250E0,-4.074526978E-1,1.183633621E1,2.852318573E0,1.218197824E1
2.778907250E0,-4.667294312E-1,1.093535980E1,2.539469147E0,1.123605064E1
2.788867250E0,-7.123686218E-1,9.814041595E0,2.063908081E0,1.005398419E1
2.798826250E0,-9.433383179E-1,8.605305176E0,1.720073090E0,8.826087230E0
2.808785250E0,-1.095272369E0,7.441625061E0,1.352437592E0,7.642414053E0
2.818744250E0,-1.180445251E0,6.449637909E0,8.161029053E-1,6.607367411E0
2.828703250E0,-1.039588165E0,5.683680725E0,2.829116821E-2,5.778042102E0
2.838662250E0,-7.547305298E-1,4.995411987E0,-5.550457764E-1,5.082502819E0
2.848621250E0,-5.532495117E-1,4.444856873E0,-9.539662170E-1,4.579616707E0
2.858580250E0,-4.414320374E-1,3.930526428E0,-1.185235291E0,4.129005079E0
2.868539250E0,-3.534150696E-1,3.322490845E0,-1.217717743E0,3.556217671E0
2.878498250E0,-3.372486877E-1,2.651735687E0,-1.325792999E0,2.983817338E0
2.888457250E0,-4.016148376E-1,2.021396484E0,-1.722168732E0,2.685740748E0
2.898416250E0,-4.897814941E-1,1.453776855E0,-2.127076721E0,2.622557613E0
2.908375250E0,-5.655239868E-1,9.117539978E-1,-2.412832489E0,2.640619880E0
2.918334250E0,-6.274951172E-1,3.442840576E-1,-2.609822845E0,2.706188633E0
2.928293250E0,-6.725514221E-1,-2.595602417E-1,-2.845283203E0,2.935188825E0
2.938252250E0,-7.396119690E-1,-7.542814636E-1,-3.249742126E0,3.417131879E0
2.948211250E0,-7.780819702E-1,-1.129551086E0,-3.604354706E0,3.856510087E0
2.958170250E0,-8.337661743E-1,-1.483564911E0,-3.916904755E0,4.270629197E0
2.968130250E0,-8.241860962E-1,-1.810485077E0,-4.146976318E0,4.599407736E0
2.978089250E0,-7.673043823E-1,-2.156565399E0,-4.277055817E0,4.851055225E0
2.988048250E0,-7.295828247E-1,-2.496059418E0,-4.323459320E0,5.045285344E0
2.998007250E0,-7.554789734E-1,-2.771486664E0,-4.402644653E0,5.256916087E0
3.007966250E0,-9.264234924E-1,-2.978356476E0,-4.764142914E0,5.694376655E0
3.017925250E0,-8.812174988E-1,-3.069666595E0,-5.083878021E0,6.003766570E0
3.027884250E0,-7.291337585E-1,-3.080294495E0,-5.240602112E0,6.122398281E0
3.037843250E0,-5.246589661E-1,-3.029250641E0,-5.330115967E0,6.153191261E0
3.047802250E0,-2.531236267E-1,-2.945275269E0,-5.379962311E0,6.138624638E0
3.057761250E0,5.388793945E-2,-2.811752930E0,-5.441933441E0,6.125642662E0
3.067720250E0,3.791615295E-1,-2.564766541E0,-5.338049469E0,5.934354473E0
3.077679250E0,8.258326721E-1,-2.185904388E0,-4.885989532E0,5.416001413E0
3.087638250E0,1.221010895E0,-1.853745117E0,-4.468208313E0,4.989200747E0
3.097597250E0,1.332528992E0,-1.490600281E0,-4.302802277E0,4.744642257E0
3.107556250E0,1.265917511E0,-1.022224274E0,-3.947590942E0,4.269773280E0
3.117515250E0,1.410367126E0,-3.589535522E-1,-3.492387543E0,3.783484351E0
3.127474250E0,1.560654602E0,1.213975525E-1,-3.443888397E0,3.782954856E0
3.137433250E0,1.616338806E0,2.577639771E-1,-3.616928558E0,3.970033451E0
3.147393250E0,1.261726227E0,1.692979431E-1,-3.178789673E0,3.424225263E0
3.157352250E0,6.613247681E-1,-3.891906738E-3,-2.427951050E0,2.516408531E0
3.167311250E0,-2.709365845E-1,3.044668579E-1,-1.683399353E0,1.732033511E0
3.177270250E0,-1.337468719E0,1.427132263E0,-1.166524200E0,2.277346654E0
3.187229250E0,-1.853745117E0,2.843936005E0,-2.794688416E-1,3.406236309E0
3.197188250E0,-1.391206970E0,4.302053833E0,1.220861206E0,4.683334934E0
3.207147250E0,-6.619235229E-1,5.704337769E0,2.530487823E0,6.275426739E0
3.217106250E0,-3.981719971E-1,7.196285248E0,3.590134277E0,8.051964135E0
3.227065250E0,-7.696994019E-1,8.512647858E0,3.954776001E0,9.417954339E0
3.237024250E0,-1.472338257E0,1.030232620E1,3.248694305E0,1.090228049E1
3.246983250E0,-1.832489319E0,1.203437439E1,2.137255554E0,1.235928984E1
3.256942250E0,-1.776356049E0,1.360430969E1,1.542691956E0,1.380625154E1
3.266901250E0,-1.112486572E0,1.551493652E1,1.324745178E0,1.561108041E1
3.276860250E0,-5.075944519E-1,1.783092041E1,1.591340790E0,1.790898490E1
3.286819250E0,-9.460327148E-2,2.057231964E1,2.461331635E0,2.071925285E1
3.296778250E0,-1.558259583E-1,2.303035812E1,3.250939636E0,2.325919787E1
3.306737250E0,-1.100511475E0,2.484054382E1,4.007616119E0,2.518580413E1
3.316696250E0,-2.733615417E0,2.617097717E1,4.388124847E0,2.667673779E1
3.326656250E0,-6.218069458E-1,4.353891037E1,6.872807922E0,4.408240974E1
3.336615250E0,-3.550167389E0,4.305706238E1,1.410636566E1,4.544781470E1
3.346574250E0,-5.786516876E0,3.146591629E1,6.292913818E0,3.260657035E1
3.356533250E0,-5.773493958E0,2.773896652E1,-8.065377960E0,2.945901930E1
3.366492250E0,-3.269800415E0,2.365575760E1,-1.000863693E1,2.589322837E1
3.376451250E0,-6.866221619E-1,2.072185867E1,-6.014193420E0,2.158789937E1
3.386410250E0,4.635859680E-1,2.042337936E1,-2.920277252E0,2.063631158E1
3.396369250E0,1.003513184E0,2.078113541E1,-6.017486572E-1,2.081405124E1
3.406328250E0,9.401948547E-1,2.042188248E1,1.135388947E0,2.047501791E1
3.416287250E0,2.715353394E-1,1.972627899E1,1.326541443E0,1.977269649E1
3.426246250E0,-6.813830566E-1,1.922542053E1,9.493258667E-1,1.926090073E1
3.436205250E0,-1.118474121E0,1.877845001E1,1.214723969E0,1.885090776E1
3.446164250E0,-1.350192261E0,1.805245972E1,1.674867096E0,1.818019529E1
3.456123250E0,-1.412313080E0,1.721195755E1,1.923350372E0,1.737657583E1
3.466082250E0,-1.428479462E0,1.625155472E1,1.950294342E0,1.643037530E1
3.476041250E0,-1.475332031E0,1.525507690E1,1.859882355E0,1.543868966E1
3.486001250E0,-1.420096893E0,1.437206314E1,1.692081299E0,1.454083950E1
3.495960250E0,-1.145567780E0,1.361104568E1,1.484463043E0,1.373959682E1
3.505919250E0,-8.006849670E-1,1.296424072E1,1.459315338E0,1.307066315E1
3.515878250E0,-6.141728210E-1,1.215068253E1,1.792522430E0,1.229753759E1
3.525837250E0,-5.495072937E-1,1.136930740E1,2.174228668E0,1.158837260E1
3.535796250E0,-6.285429382E-1,1.052012329E1,2.308798828E0,1.078881886E1
3.545755250E0,-7.831713867E-1,9.549092560E0,2.085313568E0,9.805460663E0
3.555714250E0,-7.246430969E-1,8.575217743E0,1.539847870E0,8.742459518E0
3.565673250E0,-5.646258545E-1,7.605384521E0,9.897418213E-1,7.690270798E0
3.575632250E0,-4.427792358E-1,6.766079865E0,4.388873291E-1,6.794741516E0
3.585591250E0,-3.986210632E-1,5.934409332E0,7.334747314E-2,5.948234421E0
3.595550250E0,-5.307962036E-1,5.066065063E0,-1.788780212E-1,5.096936058E0
3.605509250E0,-6.712042236E-1,4.190386047E0,-2.915936279E-1,4.253807375E0
3.615468250E0,-8.577163696E-1,3.361559601E0,-7.499404907E-1,3.549390238E0
3.625427250E0,-9.761201477E-1,2.745889893E0,-1.556014252E0,3.303619560E0
3.635386250E0,-9.451345825E-1,2.194586334E0,-2.149230652E0,3.213826528E0
3.645345250E0,-8.382568359E-1,1.636097717E0,-2.579885101E0,3.167853753E0
3.655304250E0,-6.201603699E-1,1.181343384E0,-2.943329315E0,3.231618562E0
3.665265250E0,-4.547543335E-1,7.048841858E-1,-3.287463684E0,3.392798357E0
3.675224250E0,-4.358935547E-1,2.392025757E-1,-3.579506378E0,3.613874233E0
3.685183250E0,-5.578898621E-1,-1.194515991E-1,-3.874243469E0,3.916027610E0
3.695142250E0,-6.198609924E-1,-4.586462402E-1,-4.094585266E0,4.166558835E0
3.705101250E0,-6.923103333E-1,-8.104147339E-1,-4.264182587E0,4.395374702E0
3.715060250E0,-7.532336426E-1,-1.147364044E0,-4.389621735E0,4.599193858E0
3.725019250E0,-7.580236816E-1,-1.472338257E0,-4.574038239E0,4.864586894E0
3.734978250E0,-7.988887024E-1,-1.740879822E0,-4.899760895E0,5.260849983E0
3.744937250E0,-9.680369568E-1,-1.941612396E0,-5.303770752E0,5.730352383E0
3.754896250E0,-9.819580078E-1,-2.077230377E0,-5.550607452E0,6.007359708E0
3.764855250E0,-8.707392883E-1,-2.162552948E0,-5.683381348E0,6.142934617E0
3.774814250E0,-8.840615845E-1,-2.273921356E0,-5.739065552E0,6.236117111E0
3.784773250E0,-1.033001862E0,-2.385140076E0,-5.788612518E0,6.345393677E0
3.794732250E0,-1.113384705E0,-2.470462646E0,-5.887856140E0,6.481486027E0
3.804691250E0,-1.057550812E0,-2.425106964E0,-6.132297821E0,6.678670083E0
3.814650250E0,-8.996292114E-1,-2.352358246E0,-6.273903351E0,6.760531436E0
3.824610250E0,-7.833210754E-1,-2.268233185E0,-6.290069733E0,6.732269374E0
3.834569250E0,-6.617738342E-1,-2.139500885E0,-6.299649811E0,6.685880375E0
3.844528250E0,-5.041516113E-1,-2.104324036E0,-6.213279419E0,6.579300087E0
3.854487250E0,-3.909869385E-1,-2.020797729E0,-6.172115021E0,6.506266063E0
3.864446250E0,-2.469863892E-1,-1.841320953E0,-6.223458252E0,6.494836237E0
3.874405250E0,-1.287322998E-2,-1.651216278E0,-5.980663147E0,6.204434913E0
3.884364250E0,2.884501648E-1,-1.443897400E0,-5.460943909E0,5.655966016E0
3.894323250E0,3.162922668E-1,-1.249451752E0,-4.773273926E0,4.944220307E0
3.904282250E0,-1.791773987E-1,-7.689509583E-1,-3.278482361E0,3.372215400E0
3.914241250E0,-5.508544922E-2,2.296224976E-1,-1.469943237E0,1.488789448E0
3.924200250E0,7.220983887E-1,1.298849030E0,-2.646496582E-1,1.509461601E0
3.934159250E0,1.503323822E0,2.250420227E0,-4.514611816E-1,2.743754893E0
3.944118250E0,2.133363647E0,2.471360779E0,-9.821076965E-1,3.409310792E0
3.954077250E0,1.872456207E0,2.558329926E0,-9.298663330E-1,3.303906121E0
3.964036250E0,3.448828125E-1,3.014581146E0,-2.529739380E-1,3.044772480E0
3.973995250E0,-2.193388824E0,4.106111298E0,1.276246033E0,4.826997872E0
3.983954250E0,-4.722828827E0,5.414989471E0,3.155737610E0,7.847668633E0
3.993913250E0,-6.421795807E0,6.922654266E0,5.172793121E0,1.076663328E1
4.003873250E0,-6.708898773E0,8.885522461E0,6.461463318E0,1.287293053E1
4.013832250E0,-5.388644257E0,1.089898544E1,6.601721649E0,1.383503160E1
4.023791250E0,-3.808979187E0,1.254586075E1,6.343358917E0,1.456520328E1
4.033750250E0,-2.643053741E0,1.389111328E1,5.877527618E0,1.531319993E1
4.043709250E0,-1.811083832E0,1.473969864E1,5.129084015E0,1.571134124E1
4.053668250E0,-1.588945770E0,1.510014908E1,4.674479370E0,1.588678722E1
4.063627250E0,-1.823957062E0,1.570638840E1,3.935316467E0,1.629429874E1
4.073586250E0,-1.454974365E0,1.650916901E1,2.572550354E0,1.677163161E1
4.083545250E0,-8.656498718E-1,1.737122635E1,1.654808807E0,1.747132642E1
4.093504250E0,-1.401086426E-1,1.881242935E1,1.644779663E0,1.888471415E1
4.103463250E0,5.692662048E-1,2.057815750E1,2.188299408E0,2.070201160E1
4.113422250E0,1.280736694E0,2.406530594E1,3.125201111E0,2.430115467E1
4.123381250E0,4.035907288E0,4.359025360E1,8.390052795E0,4.457344212E1
4.133340250E0,2.147284698E0,3.851909912E1,1.507545044E1,4.141981452E1
4.143299250E0,5.357359314E-1,3.084051682E1,7.522456970E0,3.174920234E1
4.153258250E0,-1.501826935E0,2.779105820E1,-1.069825287E0,2.785216196E1
4.163218250E0,2.956352234E-1,2.389361298E1,-3.061733093E0,2.409079390E1
4.173177250E0,1.414857788E0,2.187715622E1,-6.647676086E-1,2.193293648E1
4.183136250E0,9.123527527E-1,2.115909943E1,9.424401855E-1,2.119971862E1
4.193095250E0,1.532812500E-1,2.117302048E1,2.217339020E0,2.128936081E1
4.203054250E0,-9.253756714E-1,2.057920532E1,3.534001007E0,2.090093718E1
4.213013250E0,-1.552721100E0,1.974843292E1,3.572171631E0,2.012888362E1
4.222972250E0,-2.133213959E0,1.916374878E1,3.210074615E0,1.954749212E1
4.232931250E0,-2.388433228E0,1.866558472E1,3.296445007E0,1.910432453E1
4.242890250E0,-2.218835907E0,1.819122116E1,3.733386383E0,1.870245797E1
4.252849250E0,-1.925895081E0,1.767225037E1,4.212539978E0,1.826918164E1
4.262808250E0,-1.695374451E0,1.705238937E1,4.510270844E0,1.772006831E1
4.272767250E0,-1.540296936E0,1.630454453E1,4.546944580E0,1.699662884E1
4.282726250E0,-1.222208405E0,1.556238785E1,4.543801117E0,1.625816218E1
4.292685250E0,-7.942483521E-1,1.489193207E1,4.317621460E0,1.552553787E1
4.302644250E0,-4.683760071E-1,1.408705582E1,4.213587799E0,1.471118078E1
4.312604250E0,-4.909790039E-1,1.304671921E1,4.112547913E0,1.368835245E1
4.322563250E0,-6.846762085E-1,1.182061890E1,4.093088379E0,1.252793619E1
4.332522250E0,-1.020278320E0,1.044228516E1,3.974684601E0,1.121964370E1
4.342481250E0,-1.329984283E0,9.136849823E0,3.562591553E0,9.896612625E0
4.352440250E0,-1.496288452E0,7.920179901E0,2.899470520E0,8.565924241E0
4.362399250E0,-1.472038879E0,6.847809906E0,2.263742523E0,7.360973386E0
4.372358250E0,-1.326990509E0,5.941594391E0,1.807940369E0,6.350755553E0
4.382317250E0,-1.084195404E0,5.086422729E0,1.592837677E0,5.439145863E0
4.392276250E0,-9.592053223E-1,4.286336517E0,1.246308289E0,4.565746373E0
4.402235250E0,-9.764195251E-1,3.543581085E0,8.150550842E-1,3.764927195E0
4.412194250E0,-1.065634003E0,2.818638611E0,3.733236694E-1,3.036390951E0
4.422153250E0,-1.203647003E0,2.171384583E0,-1.842668152E-1,2.489504242E0
4.432112250E0,-1.329834595E0,1.576820984E0,-7.197033691E-1,2.184673295E0
4.442071250E0,-1.349294128E0,1.018332367E0,-1.219663696E0,2.084508332E0
4.452030250E0,-1.185834045E0,5.475613403E-1,-1.892514496E0,2.299486230E0
4.461989250E0,-9.713301086E-1,1.787283325E-1,-2.487078094E0,2.676001391E0
4.471948250E0,-7.819738770E-1,-1.817221069E-1,-2.776875458E0,2.890595678E0
4.481908250E0,-5.405259705E-1,-6.224057007E-1,-2.790347443E0,2.909569733E0
4.491867250E0,-5.385800171E-1,-1.181493073E0,-3.041076050E0,3.306680791E0
4.501826250E0,-6.885681152E-1,-1.537752228E0,-3.740421753E0,4.102385020E0
4.511785250E0,-7.029382324E-1,-1.743873596E0,-4.297563171E0,4.690870547E0
4.521744250E0,-7.400610352E-1,-2.054926758E0,-4.606071625E0,5.097676934E0
4.531703250E0,-8.285270691E-1,-2.285746765E0,-4.859494629E0,5.433763284E0
4.541662250E0,-9.023236084E-1,-2.434986420E0,-5.131628723E0,5.751257263E0
4.551621250E0,-8.128097534E-1,-2.540816345E0,-5.317093048E0,5.948771796E0
4.561580250E0,-7.274871826E-1,-2.584974518E0,-5.476361847E0,6.099333565E0
4.571539250E0,-7.265890503E-1,-2.638114014E0,-5.591023407E0,6.224718462E0
4.581498250E0,-7.535330200E-1,-2.663411407E0,-5.651198273E0,6.292663526E0
4.591457250E0,-7.101232910E-1,-2.647245026E0,-5.760021973E0,6.378874073E0
4.601416250E0,-5.563929749E-1,-2.602937164E0,-5.951473846E0,6.519577898E0
4.611375250E0,-3.852987671E-1,-2.535427551E0,-6.125861206E0,6.641010731E0
4.621334250E0,-2.718347168E-1,-2.487078094E0,-6.304589539E0,6.782868185E0
4.631293250E0,-9.131011963E-2,-2.436932373E0,-6.364914093E0,6.816091867E0
4.641252250E0,9.550140381E-2,-2.461331635E0,-6.245312805E0,6.713509214E0
4.651212250E0,2.900967407E-1,-2.553839264E0,-6.099665680E0,6.619076409E0
4.661171250E0,3.761677551E-1,-2.591560822E0,-5.945785675E0,6.496926732E0
4.671130375E0,4.105961609E-1,-2.591560822E0,-5.656437378E0,6.235387759E0
4.681089375E0,3.620970154E-1,-2.488275604E0,-4.901407471E0,5.508758928E0
4.691048375E0,3.604504395E-1,-2.170037384E0,-4.054768066E0,4.613039219E0
4.701007375E0,1.704954529E-1,-1.836680603E0,-3.515589294E0,3.970117432E0
4.710966375E0,2.314187622E-1,-1.312470703E0,-2.718496857E0,3.027599569E0
4.720925375E0,8.337661743E-1,-6.595285034E-1,-2.468067627E0,2.687285190E0
4.730884375E0,1.287173309E0,-3.016227722E-1,-2.683469696E0,2.991454669E0
4.740843375E0,1.505419464E0,-2.767744446E-1,-2.743943939E0,3.141993030E0
4.750802375E0,1.417103119E0,-2.460882568E-1,-1.919907532E0,2.398913423E0
4.760761375E0,4.300556946E-1,5.215155029E-1,-8.726852417E-2,6.815732650E-1
4.770720375E0,-1.115779724E0,2.921474762E0,1.998793488E0,3.711489537E0
4.780679375E0,-1.726060638E0,5.770350494E0,3.854634247E0,7.150834590E0
4.790638375E0,-1.483265533E0,8.229287109E0,5.700296173E0,1.012001084E1
4.800597375E0,-9.271719360E-1,1.052311707E1,7.456144867E0,1.293018704E1
4.810557375E0,-6.292913818E-1,1.270408173E1,8.423433380E0,1.525594737E1
4.820516375E0,-1.414708099E0,1.466590210E1,8.667725372E0,1.709443028E1
4.830475375E0,-2.637066193E0,1.641636200E1,8.345894623E0,1.860389788E1
4.840434375E0,-3.399730225E0,1.764770142E1,7.406298523E0,1.943843586E1
4.850393375E0,-3.804787903E0,1.858744720E1,6.717730408E0,2.012703422E1
4.860352375E0,-3.991449738E0,1.984692810E1,6.404282227E0,2.123315937E1
4.870311375E0,-3.849844208E0,2.149964127E1,6.117478638E0,2.268213879E1
4.880270375E0,-3.123255157E0,2.338811417E1,6.426136780E0,2.445513936E1
4.890229375E0,-2.102378082E0,2.557162354E1,7.218588867E0,2.665400437E1
4.900188375E0,-1.380878448E0,2.781141586E1,7.681576080E0,2.888578004E1
4.910147375E0,-1.777852936E0,3.263693115E1,9.128317566E0,3.393606073E1
4.920106375E0,1.150956573E0,3.393548080E1,1.075019485E1,3.561612343E1
4.930065375E0,1.755699005E0,3.397948929E1,9.607920227E0,3.535534334E1
4.940024375E0,9.145980835E-1,2.913616104E1,6.837930450E0,2.994177120E1
4.949984375E0,3.412902832E-1,2.674263840E1,3.973487091E0,2.703837619E1
4.959943375E0,1.814227295E-1,2.629417099E1,3.591780853E0,2.653897571E1
4.969902375E0,-2.224374390E-1,2.447560272E1,5.035977631E0,2.498931127E1
4.979861375E0,-6.764433289E-1,2.302960968E1,5.196593628E0,2.361832092E1
4.989820375E0,-1.087488556E0,2.160502213E1,4.677173767E0,2.213222914E1
4.999779375E0,-1.389560394E0,1.999332367E1,4.755610657E0,2.059805093E1
5.009738375E0,-1.458716583E0,1.871438324E1,4.934338989E0,1.940885611E1
5.019697375E0,-1.122515717E0,1.786430099E1,5.217100983E0,1.864434054E1
5.029656375E0,-7.572752380E-1,1.722393265E1,5.590125275E0,1.812420542E1
5.039615375E0,-3.766168213E-1,1.649390076E1,6.032305756E0,1.756642579E1
5.049574375E0,-3.460803223E-1,1.553454575E1,6.090534668E0,1.668941268E1
5.059533375E0,-5.143304443E-1,1.444735657E1,5.868845673E0,1.560237152E1
5.069492375E0,-6.081852722E-1,1.328487396E1,5.486091614E0,1.438592947E1
5.079451375E0,-5.330415344E-1,1.204365509E1,5.044210510E0,1.306819884E1
5.089410375E0,-3.848497009E-1,1.081845291E1,4.560566254E0,1.174673560E1
5.099369375E0,-3.206332397E-1,9.632918243E0,4.186344452E0,1.050815871E1
5.109329375E0,-3.496728516E-1,8.515491943E0,3.709585876E0,9.294993357E0
5.119288375E0,-4.691244507E-1,7.416776733E0,3.302582245E0,8.132386141E0
5.129247375E0,-6.743476868E-1,6.335126038E0,2.882106628E0,6.992503510E0
5.139206375E0,-9.105564880E-1,5.310357056E0,2.401007080E0,5.898630364E0
5.149165375E0,-1.056652679E0,4.335584106E0,1.958676910E0,4.873419710E0
5.159124375E0,-1.167422333E0,3.444936218E0,1.525477753E0,3.944305113E0
5.169083375E0,-1.258433075E0,2.642604675E0,1.085243225E0,3.121660797E0
5.179042375E0,-1.349443817E0,1.931583252E0,5.966592407E-1,2.430640805E0
5.189001375E0,-1.314716034E0,1.269510040E0,4.011657715E-2,1.828043580E0
5.198960375E0,-1.224902802E0,5.893244934E-1,-4.593946838E-1,1.434828808E0
5.208919375E0,-1.175954590E0,-1.526824951E-2,-1.009500732E0,1.549901302E0
5.218878375E0,-1.145268402E0,-6.089337158E-1,-1.586999817E0,2.049636163E0
5.228837375E0,-1.124761047E0,-1.200204163E0,-2.156415710E0,2.712140513E0
5.238796375E0,-1.056652679E0,-1.857487335E0,-2.686164093E0,3.432528459E0
5.248755375E0,-1.131197662E0,-2.471660156E0,-3.231779480E0,4.222926792E0
5.258715375E0,-1.330732727E0,-2.924019470E0,-3.976031799E0,5.111708943E0
5.268674375E0,-1.434017944E0,-3.184926910E0,-4.632416840E0,5.801676712E0
5.278633375E0,-1.474134521E0,-3.375929718E0,-5.022206268E0,6.228364942E0
5.288592375E0,-1.475631409E0,-3.429817657E0,-5.250481567E0,6.442724106E0
5.298551375E0,-1.308129730E0,-3.344644775E0,-5.319637756E0,6.418442017E0
5.308510375E0,-1.072220306E0,-3.195255432E0,-5.214406586E0,6.208812262E0
5.318469375E0,-9.063652039E-1,-3.041375427E0,-5.084626465E0,5.993737453E0
5.328428375E0,-8.024812317E-1,-2.897225189E0,-4.950655060E0,5.791966458E0
5.338387375E0,-6.979985046E-1,-2.690205688E0,-4.833897858E0,5.575928358E0
5.348346375E0,-5.944139099E-1,-2.499053192E0,-4.808750153E0,5.451850400E0
5.358305375E0,-5.132826233E-1,-2.365231476E0,-4.860093384E0,5.429391005E0
5.368264375E0,-4.896318054E-1,-2.164049835E0,-4.912035370E0,5.389892621E0
5.378223375E0,-4.707710266E-1,-1.918859711E0,-4.954546967E0,5.333965091E0
5.388182375E0,-5.126838684E-1,-1.513652344E0,-5.032834167E0,5.280474214E0
5.398141375E0,-4.620890808E-1,-1.051862640E0,-4.790937195E0,4.926765728E0
5.408100375E0,-9.639953613E-2,-5.777984619E-1,-4.267625427E0,4.307640969E0
5.418060375E0,3.965254211E-1,-8.487350464E-2,-3.746409302E0,3.768291201E0
5.428019375E0,1.029708710E0,3.888912964E-1,-3.554508362E0,3.721030255E0
5.437978375E0,1.472038879E0,7.366181946E-1,-3.429518280E0,3.804089965E0
5.447937375E0,1.280736694E0,1.115480347E0,-3.244652710E0,3.662288095E0
5.457896375E0,9.794132996E-1,1.640139313E0,-2.911894684E0,3.482590706E0
5.467855375E0,4.510121155E-1,2.166893921E0,-1.911524963E0,2.924511733E0
5.477814375E0,-3.273692322E-1,2.931054840E0,-6.210585022E-1,3.013961969E0
5.487773375E0,-6.053411865E-1,3.982019348E0,5.677693176E-1,4.067588725E0
5.497732375E0,-1.245559845E0,4.994364166E0,1.344055023E0,5.319922618E0
5.507691375E0,-1.972747650E0,6.102809143E0,2.438429260E0,6.861628814E0
5.517650375E0,-2.118245087E0,7.521409149E0,3.734733582E0,8.660646209E0
5.527609375E0,-2.106569366E0,9.081764374E0,4.961282959E0,1.056079577E1
5.537568375E0,-1.680704956E0,1.085916824E1,6.002368011E0,1.252097144E1
5.547527375E0,-1.295256500E0,1.236803055E1,6.682703247E0,1.411752074E1
5.557486375E0,-1.676513672E0,1.319101913E1,6.387367401E0,1.475168283E1
5.567446375E0,-2.005080414E0,1.363499588E1,5.767506409E0,1.493979887E1
5.577405375E0,-1.712139587E0,1.395248566E1,5.184169464E0,1.498261963E1
5.587364375E0,-1.068029022E0,1.436248306E1,4.621938629E0,1.512560486E1
5.597323375E0,-3.146456909E-1,1.497066833E1,4.636608124E0,1.567539624E1
5.607282375E0,1.688488770E-1,1.561882050E1,5.078040161E0,1.642444993E1
5.617241375E0,3.091072083E-1,1.601998627E1,5.258415070E0,1.686376104E1
5.627200375E0,1.508862305E-1,1.614213226E1,5.449866943E0,1.703796497E1
5.637159375E0,-5.357359314E-1,1.599468887E1,5.553451538E0,1.693983203E1
5.647118375E0,-1.443598022E0,1.557526108E1,5.464985504E0,1.656921240E1
5.657077375E0,-1.975442047E0,1.516361710E1,5.419480133E0,1.622369932E1
5.667036292E0,-2.376308441E0,1.512020737E1,5.610482941E0,1.630168799E1
5.676995292E0,-3.367247772E0,1.460183533E1,6.327791290E0,1.626631166E1
5.686954292E0,-1.620380402E0,1.453327789E1,5.576204224E0,1.565042659E1
5.696913292E0,4.643044739E0,2.753598862E1,5.267396393E0,2.841714268E1
5.706872292E0,6.415508881E0,3.057092743E1,8.756490784E0,3.244096930E1
5.716832292E0,2.150877228E0,2.150592819E1,1.042252625E1,2.399500518E1
5.726791292E0,1.018332367E0,1.757674896E1,7.910150757E0,1.930154372E1
5.736750292E0,3.414399719E-1,1.582688782E1,5.170098724E0,1.665343448E1
5.746709292E0,6.240522766E-1,1.381312546E1,3.574866028E0,1.428186064E1
5.756668292E0,8.544232178E-1,1.241967316E1,2.933300171E0,1.278994020E1
5.766627292E0,1.188827820E0,1.025068359E1,1.900298309E0,1.049290043E1
5.776586292E0,1.755249939E0,8.447982330E0,1.197659454E0,8.711124840E0
5.786545292E0,3.028951263E0,7.081923065E0,4.978646851E-1,7.718552280E0
5.796504292E0,3.767216034E0,5.748945007E0,1.219963074E-1,6.874384950E0
5.806463292E0,3.877985687E0,5.030289459E0,3.195854187E-1,6.359616331E0
5.816422292E0,3.662583618E0,5.220992889E0,6.503974915E-1,6.410639781E0
5.826381292E0,3.007545776E0,5.763464813E0,1.266216888E0,6.623153589E0
5.836340292E0,2.645897827E0,6.174959106E0,2.238894196E0,7.081210525E0
5.846299292E0,2.749183044E0,6.482120361E0,3.343896332E0,7.794711955E0
5.856258292E0,3.403023376E0,6.864724731E0,4.586013336E0,8.929531458E0
5.866218292E0,4.219275970E0,7.203769684E0,5.715414734E0,1.011743806E1
5.876177292E0,4.437372437E0,7.569758606E0,6.755152588E0,1.107355435E1
5.886136292E0,5.018164673E0,7.989036713E0,7.854167175E0,1.227577396E1
5.896095292E0,5.515729980E0,8.321195984E0,8.968599701E0,1.342018481E1
5.906054292E0,5.587131500E0,8.213869171E0,9.185348969E0,1.352975687E1
5.916013292E0,5.242997131E0,7.959548035E0,8.556806030E0,1.280868273E1
5.925972292E0,4.477339325E0,7.589218140E0,8.324040070E0,1.212156931E1
5.935931292E0,3.606001282E0,7.157366180E0,8.183033295E0,1.145395869E1
5.945890292E0,2.639760590E0,6.763834534E0,7.725434875E0,1.060189311E1
5.955849292E0,1.701062622E0,6.518345032E0,7.158563690E0,9.829927268E0
5.965808292E0,1.451980591E0,6.491401062E0,6.792874146E0,9.507348450E0
5.975767292E0,1.498384094E0,6.522087250E0,6.632557526E0,9.421974120E0
5.985726292E0,1.710792389E0,6.781348114E0,6.513255615E0,9.556986531E0
5.995685292E0,1.863474884E0,7.146588593E0,6.376440125E0,9.757318065E0
6.005645292E0,2.115401001E0,7.283104706E0,6.380182343E0,9.910865869E0
6.015604292E0,2.515069885E0,7.254364471E0,6.479276276E0,1.004651191E1
6.025563292E0,2.545905762E0,7.246580658E0,6.418352966E0,1.000948661E1
6.035522292E0,2.007026367E0,7.140002289E0,6.619534607E0,9.941128001E0
6.045481292E0,1.615889740E0,7.084617462E0,6.922055511E0,1.003582367E1
6.055440292E0,1.680854645E0,6.800208893E0,6.884034576E0,9.821305686E0
6.065399292E0,2.051184540E0,6.578819275E0,7.209607544E0,9.973297449E0
6.075358292E0,2.015109558E0,6.754254456E0,7.800728302E0,1.051341913E1
6.085317292E0,1.557810516E0,7.272476807E0,7.914940796E0,1.086103035E1
6.095276292E0,1.805096283E0,7.511380005E0,7.512278137E0,1.077559859E1
6.105235292E0,2.017953644E0,7.610623627E0,7.340585175E0,1.076466068E1
6.115194292E0,2.144739990E0,7.316634979E0,6.959926758E0,1.032345085E1
6.125153292E0,2.546205139E0,6.975045319E0,6.381529541E0,9.790727097E0
6.135112292E0,2.499202881E0,7.043003998E0,6.113586731E0,9.655354114E0
6.145071292E0,2.116299133E0,7.186405792E0,6.189029846E0,9.717367991E0
6.155031292E0,1.939965820E0,7.117698669E0,6.447841644E0,9.797946908E0
6.164990292E0,1.879790955E0,7.044650574E0,6.669979706E0,9.881768314E0
6.174949292E0,1.961820374E0,7.002438354E0,6.686744843E0,9.879040372E0
6.184908292E0,2.138453064E0,6.980284424E0,6.551276550E0,9.809004872E0
6.194867292E0,2.298320618E0,6.974446564E0,6.416257324E0,9.751591695E0
6.204826292E0,2.390678558E0,6.954537964E0,6.246660004E0,9.648922399E0
6.214785292E0,2.407443695E0,6.909930725E0,6.171815643E0,9.572577297E0
6.224744292E0,2.354603577E0,6.884633331E0,6.210285645E0,9.566084983E0
6.234703292E0,2.223625946E0,6.874155121E0,6.285279694E0,9.576182005E0
6.244662292E0,2.154469757E0,6.870562592E0,6.434519348E0,9.656573383E0
6.254621292E0,2.121089172E0,6.919061737E0,6.750661926E0,9.896659590E0
6.264580292E0,2.166594543E0,6.932533722E0,7.032825165E0,1.011013281E1
6.274539292E0,2.345322876E0,6.956184540E0,7.054230652E0,1.018092397E1
6.284498292E0,2.688858490E0,6.936126251E0,6.817572784E0,1.009054538E1
6.294457292E0,2.656076660E0,6.911427612E0,6.578070831E0,9.904220854E0
6.304417292E0,2.282453613E0,6.898853760E0,6.561156006E0,9.790431340E0
6.314376292E0,1.940863953E0,6.918912048E0,6.639293518E0,9.783583967E0
6.324335292E0,1.799557800E0,6.971153412E0,6.682553558E0,9.823029585E0
6.334294292E0,1.777104492E0,6.945706329E0,6.481222229E0,9.664738919E0
6.344253292E0,1.780547333E0,6.972949677E0,5.536087646E0,9.079682947E0
6.354212292E0,1.677112427E0,6.798262939E0,6.345155182E0,9.449342801E0
6.364171292E0,1.616638184E0,6.864125977E0,7.088359680E0,9.998729289E0
6.374130292E0,1.691781921E0,7.014563141E0,7.482041016E0,1.039457358E1
6.384089292E0,1.859133911E0,6.899302826E0,7.916886749E0,1.066460755E1
6.394048292E0,2.076631622E0,6.906188507E0,7.622449036E0,1.049331063E1