"Time (s)","Linear Acceleration x (m/s^2)","Linear Acceleration y (m/s^2)","Linear Acceleration z (m/s^2)","Absolute acceleration (m/s^2)"
5.466000002E-3,9.377741075E-1,-9.085929930E-2,-1.048863603E0,1.409890261E0
1.550699997E-2,1.091437181E0,-1.130845660E-1,-8.021602196E-1,1.359221930E0
2.554800001E-2,1.091928054E0,-5.425748348E-2,-3.606591851E-1,1.151227952E0
3.558899998E-2,9.352147812E-1,9.880040288E-3,2.034831047E-3,9.352691819E-1
4.563099996E-2,8.188370633E-1,1.180880284E-1,2.883057386E-1,8.761045129E-1
5.567199999E-2,1.119695897E0,5.567660272E-1,2.382331073E-1,1.272973811E0
6.571299996E-2,1.183233642E0,3.212670779E-1,2.696232998E-1,1.255368915E0
7.575399999E-2,1.021070033E0,-5.664782524E-3,5.327222764E-2,1.022474466E0
8.579499996E-2,1.209954102E0,-1.699387980E-1,1.251064414E-1,1.228218118E0
9.583700000E-2,1.029621879E0,-2.332302296E-1,4.434797323E-1,1.145072847E0
1.058780000E-1,3.080716664E-1,-3.143954301E-1,-8.066584826E-2,4.475037622E-1
1.159190000E-1,-1.075376049E-2,-4.176011252E-1,-1.980598122E-1,4.623137813E-1
1.259600000E-1,-5.585128829E-2,-3.495611697E-1,7.203769684E-4,3.539956168E-1
1.360020000E-1,-1.199503666E-1,-1.128752357E-1,5.671892738E-1,5.906205056E-1
1.460430000E-1,-2.288800474E-1,-1.773758715E-1,9.240717423E-1,9.683784698E-1
1.560840000E-1,-2.474874955E-1,-3.779815614E-1,1.004322438E0,1.101264583E0
1.661250000E-1,-2.688935673E-1,-5.103864974E-1,9.080456936E-1,1.075799753E0
1.761660000E-1,-3.306889889E-1,-4.661119652E-1,5.993629932E-1,8.281615598E-1
1.862080000E-1,-3.853556313E-1,-3.519702226E-1,2.356065381E-1,5.726189317E-1
1.962490000E-1,-3.692760806E-1,-2.219474423E-1,-7.096824110E-2,4.366485796E-1
2.062900000E-1,-2.842940370E-1,1.591027379E-3,-2.930051458E-1,4.082617375E-1
2.163310000E-1,-4.519444540E-2,2.330442882E-1,-3.594704461E-1,4.307797346E-1
2.263730000E-1,3.985349630E-1,3.909740746E-1,-3.124734503E-1,6.397894192E-1
2.364140000E-1,7.195851092E-1,6.288388073E-1,-7.695988297E-2,9.587303055E-1
2.464550000E-1,8.033909123E-1,9.832122356E-1,5.352740014E-1,1.377919270E0
2.564960000E-1,7.874283059E-1,1.388172850E0,1.144267944E0,1.963776037E0
2.665370000E-1,8.824431483E-1,1.579755701E0,1.618497598E0,2.427729075E0
2.765790000E-1,1.921996961E-1,1.217934090E0,2.058450290E0,2.399483646E0
2.866200000E-1,1.180495464E-1,1.526151937E0,1.587479289E0,2.205258697E0
2.966610000E-1,6.965228867E-2,1.195335186E0,8.278318352E-1,1.455672764E0
3.067020000E-1,-1.236094665E0,2.290751982E-1,-2.670803457E-1,1.285199353E0
3.167440000E-1,-1.436830017E0,-2.329492124E0,-1.946181995E0,3.358368415E0
3.267850000E-1,-3.416373155E0,-2.486385784E0,-2.474275031E0,4.896504542E0
3.368260000E-1,-5.835331187E0,-2.026946077E0,-1.735618497E0,6.416538944E0
3.468670000E-1,-7.064180274E0,-2.445167007E0,-1.182022246E0,7.568266725E0
3.569080000E-1,-5.516854985E0,-3.266299102E0,-2.117393732E-2,6.411306192E0
3.669500000E-1,-2.604616485E0,-3.853666533E0,-1.091254163E-1,4.652599395E0
3.769910000E-1,-1.825641645E0,-3.679105218E0,-1.554511517E0,4.391501871E0
3.870320000E-1,5.968552686E-1,-3.328992364E0,-1.362528716E0,3.646218709E0
3.970730000E-1,6.844879282E-1,-2.495043172E0,-2.036360094E0,3.292495495E0
4.071150000E-1,1.473011564E-1,-1.104609203E0,-1.585035737E0,1.937575137E0
4.171560000E-1,6.305290912E-1,1.494722568E0,8.606323761E-1,1.836423311E0
4.271970000E-1,-7.738526791E-2,1.683142953E0,2.308083129E0,2.857657504E0
4.372380000E-1,3.167840177E0,2.081393302E0,2.563703517E0,4.576022857E0
4.472790000E-1,6.823304810E0,2.774350338E0,3.374856169E0,8.102108521E0
4.573258750E-1,6.093062419E0,1.790395506E0,2.150007747E0,6.704734076E0
4.673668750E-1,4.950460348E0,7.940790752E-1,-3.327182651E-2,5.013853433E0
4.774078750E-1,5.133119763E0,7.595848882E-1,-1.484833172E0,5.397278690E0
4.874488750E-1,3.621362210E0,1.562309949E0,-3.217856090E0,5.090154658E0
4.974898750E-1,1.576451732E0,2.869819874E0,-4.734829068E0,5.756706739E0
5.075318750E-1,7.460301653E-1,2.101562103E0,-4.946302392E0,5.425774750E0
5.175728750E-1,-2.419522288E-1,8.236387968E-3,-4.667131759E0,4.673406421E0
5.276138750E-1,-9.894649556E-1,-1.271581709E0,-3.910061758E0,4.229012165E0
5.376548750E-1,-9.702942744E-1,-1.448665220E0,-6.258941495E-1,1.852524058E0
5.476968750E-1,-1.044489301E0,-2.008394908E0,5.322540314E0,5.783947044E0
5.577378750E-1,-1.301082374E0,-2.013616179E0,3.802628526E0,4.495269643E0
5.677788750E-1,-1.540524393E0,-2.047898989E0,2.658338363E0,3.692406875E0
5.778198750E-1,-1.687791197E0,-2.245428459E0,1.195544516E0,3.052853547E0
5.878618750E-1,-1.838270753E0,-2.445159113E0,1.357611793E0,3.346812249E0
5.979028750E-1,-1.802222961E0,-2.429790291E0,1.723052831E0,3.481493863E0
6.079438750E-1,-9.995639741E-1,-9.101205781E-1,6.166596419E-1,1.485838726E0
6.179848750E-1,-1.864972356E-1,1.352273870E-1,5.608818823E-1,6.063465601E-1
6.280258750E-1,-1.614068332E-1,4.459001872E-1,1.117744973E0,1.214179957E0
6.380678750E-1,9.735736853E-1,1.277923891E0,1.977901971E0,2.548142735E0
6.481088750E-1,2.927971603E0,1.470348157E0,3.275096823E0,4.632623513E0
6.581498750E-1,4.240618015E0,9.832479036E-1,3.338183017E0,5.485716311E0
6.681908750E-1,4.565556852E0,5.376965028E-1,2.918434210E0,5.445244268E0
6.782328750E-1,3.918170969E0,3.393460840E-1,2.480145636E0,4.649552869E0
6.882738750E-1,3.208643217E0,4.813386995E-1,1.752597642E0,3.687638368E0
6.983148750E-1,2.418942829E0,6.862263054E-1,9.711120075E-1,2.695412674E0
7.083558750E-1,1.547123560E0,5.466082442E-1,5.396249145E-1,1.727300475E0
7.183968750E-1,9.706401372E-1,3.629167950E-1,6.898802304E-1,1.244903855E0
7.284388750E-1,8.917003870E-1,1.014638096E-1,1.456192048E0,1.710532012E0
7.384798750E-1,1.068514341E-1,-1.263536525E0,2.661856048E0,2.948460513E0
7.485208750E-1,-8.040248966E-1,-2.793763386E0,6.269051331E0,6.910323761E0
7.585618750E-1,-2.575867479E0,-2.559284191E0,9.891268111E0,1.053670792E1
7.686038750E-1,-5.876537100E0,-1.996338826E0,9.117990214E0,1.102981426E1
7.786448750E-1,-7.212282645E0,7.052280021E-1,5.489384181E0,9.091078383E0
7.886858750E-1,-4.087694907E0,1.039230900E0,-1.042341034E0,4.344620277E0
7.987268750E-1,2.683222944E-1,-2.411919739E0,-6.608320232E0,7.039833092E0
8.087678750E-1,4.072762288E0,-7.315513483E0,-9.430977049E0,1.261140192E1
8.188098750E-1,4.415504435E0,-6.361369511E0,-7.367496985E0,1.068848508E1
8.288508750E-1,1.629944692E0,-1.030446628E0,-4.034089973E0,4.471288613E0
8.388918750E-1,-1.246176142E-1,2.566691444E0,-2.595250415E0,3.652226613E0
8.489328750E-1,-2.121486783E-1,3.574685349E0,-2.787503357E0,4.538012491E0
8.589738750E-1,7.691640893E-1,3.827076319E0,-3.518349765E0,5.255179504E0
8.690158750E-1,2.039611731E0,2.562311879E0,-4.193719545E0,5.320971885E0
8.790568750E-1,1.726319085E0,8.088120121E-1,-3.537727438E0,4.018690070E0
8.890978750E-1,1.490856389E0,-4.323185670E-1,-1.771376560E0,2.355276424E0
8.991388750E-1,3.129984133E0,-1.146669980E0,8.620245981E-1,3.443071176E0
9.091808750E-1,6.618592036E0,-5.558480144E-1,4.220511195E0,7.869399106E0
9.192218750E-1,1.077991040E1,8.288878423E-1,7.703380347E0,1.327537541E1
9.292628750E-1,1.393310097E1,2.028546460E0,1.070115426E1,1.768505035E1
9.393038750E-1,1.379772623E1,1.653392612E0,1.280937371E1,1.889949764E1
9.493458750E-1,8.468383850E0,-1.360129019E0,1.212888528E1,1.485507772E1
9.593868750E-1,-1.205836201E-1,-3.940203570E0,8.421762246E0,9.298700119E0
9.694278750E-1,-8.987064623E0,-5.809230385E0,2.866743654E0,1.107847947E1
9.794688750E-1,-1.572971762E1,-6.584230288E0,-3.740255692E0,1.745753755E1
9.895098750E-1,-1.771395505E1,-5.068221517E0,-9.376847620E0,2.067356631E1
9.995518750E-1,-1.372026466E1,-3.614162825E0,-1.123204051E1,1.809603739E1
1.009592875E0,-6.377417194E0,-3.557244274E0,-9.454792174E0,1.194648618E1
1.019633875E0,1.495461071E0,-2.444951245E0,-7.573570991E0,8.097726098E0
1.029674875E0,6.677783985E0,-3.433607823E-1,-6.802804472E0,9.538807276E0
1.039716875E0,9.526755611E0,8.203941768E-1,-6.106031544E0,1.134529595E1
1.049757875E0,9.354916468E0,-3.428760481E-1,-3.988091097E0,1.017530819E1
1.059798875E0,7.052031514E0,-2.055254202E0,-6.230494791E-1,7.371798218E0
1.069839875E0,5.127602915E0,-2.382360894E0,7.661642922E0,9.522012778E0
1.079880875E0,3.539027274E0,-1.009229422E-3,1.446594604E1,1.489255887E1
1.089922875E0,5.011881255E0,-2.495287585E-1,1.413490241E1,1.499922280E1
1.099963875E0,4.693564682E0,-1.315697781E0,1.531924542E1,1.607606576E1
1.110004875E0,1.772638974E0,-2.049512821E0,1.183009489E1,1.213646971E1
1.120045875E0,-1.559972817E0,-2.246834714E0,6.772186697E0,7.303717826E0
1.130087875E0,-5.016974180E0,-1.676190906E0,1.075830377E0,5.397875218E0
1.140128875E0,-7.979771799E0,-5.235234368E-1,-3.939930505E0,8.914812794E0
1.150169875E0,-6.882594992E0,-1.198725986E-1,-7.968895394E0,1.053032654E1
1.160210875E0,-3.800905644E0,3.611140984E-1,-9.656526377E0,1.038391972E1
1.170251875E0,-1.680372834E-2,1.088148707E0,-1.030097433E1,1.035830208E1
1.180293875E0,3.469164449E0,8.852637720E-1,-1.052353105E1,1.111591200E1
1.190334875E0,5.212312113E0,-8.710316491E-1,-1.006742250E1,1.137013146E1
1.200375875E0,5.107595497E0,-3.383512387E0,-9.447962626E0,1.126053665E1
1.210416875E0,3.121661499E0,-5.192916899E0,-8.599384285E0,1.051953262E1
1.220458875E0,-4.829270956E-1,-5.990541433E0,-7.939446477E0,9.957641066E0
1.230499875E0,-6.388242145E0,-4.216999649E0,-5.605965382E-1,7.675089069E0
1.240540875E0,-1.406246009E1,1.078799593E0,1.520376057E1,2.073815150E1
1.250581875E0,-1.092826011E1,-2.404805724E0,1.919924138E1,2.222207977E1
1.260622875E0,-6.465864517E0,-3.722815494E0,1.573542567E1,1.741465992E1
1.270664875E0,1.953093404E0,-9.956600806E-1,1.078617160E1,1.100669845E1
1.280705875E0,5.714866850E0,-2.035647026E0,8.372943258E0,1.033971667E1
1.290746875E0,3.542579457E0,-1.776978777E0,8.175769883E0,9.085743556E0
1.300787875E0,3.012010418E0,-3.004078962E0,8.723608382E0,9.705567493E0
1.310829875E0,2.631454912E0,-3.925203123E0,1.089708978E1,1.187764034E1
1.320870875E0,1.102508299E0,-5.095751962E0,1.395079230E1,1.489318027E1
1.330911875E0,-7.982762066E-1,-6.795016565E0,1.556469048E1,1.700203178E1
1.340952875E0,-4.937050928E0,-8.364847203E0,1.412302087E1,1.714073683E1
1.350993875E0,-1.318576249E1,-9.135339487E0,8.486262882E0,1.814760088E1
1.361035875E0,-1.894774094E1,-5.896995923E0,-8.420633733E-1,1.986203711E1
1.371076875E0,-2.226111714E1,-5.064859952E0,-1.075710042E1,2.523738006E1
1.381117875E0,-2.782887565E1,-8.162638206E0,-1.872008778E1,3.451835264E1
1.391158875E0,-2.949540228E1,-8.099112886E0,-1.921516802E1,3.612197485E1
1.401200875E0,-2.160026951E1,-8.370894978E0,-1.439134024E1,2.727185728E1
1.411241875E0,-1.155921444E1,-1.125959493E1,-1.029590128E1,1.914156471E1
1.421282875E0,-4.711342556E0,-1.349218816E1,-8.148913037E0,1.645116026E1
1.431323875E0,-6.631923687E-1,-1.420201909E1,-2.678390805E0,1.446758265E1
1.441364875E0,5.018270507E-1,-7.403266157E0,1.119669760E1,1.343228265E1
1.451406875E0,1.015838179E1,-3.348536390E0,1.641978379E1,1.959629343E1
1.461442500E0,1.971493773E1,-2.579403291E0,2.519173227E1,3.209291925E1
1.471483500E0,2.218902097E1,-9.059956598E-1,2.854199973E1,3.616378338E1
1.481524500E0,2.059590263E1,-3.140123205E0,2.668569119E1,3.385524617E1
1.491566500E0,1.620123007E1,-6.648261977E0,2.614418523E1,3.146740638E1
1.501607500E0,1.088013636E1,-1.027074188E1,2.608772218E1,3.007382175E1
1.511648500E0,5.175672875E0,-1.333029513E1,2.415921924E1,2.807404909E1
1.521689500E0,-2.346785557E0,-1.518249659E1,1.980969771E1,2.506870017E1
1.531730500E0,-1.397761699E1,-1.667960716E1,1.120027609E1,2.447507418E1
1.541772500E0,-2.176938502E1,-1.616082230E1,-2.564377116E0,2.723333126E1
1.551813500E0,-2.762825768E1,-1.006329086E1,-1.675824987E1,3.384419277E1
1.561854500E0,-3.102762538E1,-5.058232133E0,-2.568970221E1,4.059876905E1
1.571895500E0,-2.833557899E1,-7.144492366E0,-2.494208423E1,3.841947909E1
1.581937500E0,-1.756377867E1,-1.103287966E1,-2.033065656E1,2.904386942E1
1.591978500E0,-4.010097678E0,-1.348748466E1,-1.636443405E1,2.158211824E1
1.602019500E0,5.173892398E0,-1.397838297E1,-1.232009507E1,1.933776346E1
1.612060500E0,9.787913312E0,-1.428221015E1,-1.242423398E0,1.735881302E1
1.622101500E0,1.119927388E1,-8.471381718E0,1.661622568E1,2.175516029E1
1.632143500E0,1.729526049E1,-2.202233615E0,3.879866620E1,4.253601259E1
1.642184500E0,2.082268338E1,-5.850015299E0,3.923356572E1,4.480044086E1
1.652225500E0,1.761747131E1,-5.545701638E0,3.386583813E1,3.857492831E1
1.662266500E0,1.493528800E1,-5.845183745E0,3.596634978E1,3.938029097E1
1.672308500E0,1.170979077E1,-9.062249292E0,3.336233205E1,3.650053098E1
1.682349500E0,6.097941921E0,-1.461992895E1,2.518699135E1,2.975418881E1
1.692390500E0,-5.132961304E0,-1.887154236E1,1.635481304E1,2.549435844E1
1.702431500E0,-1.897826457E1,-2.077717333E1,6.225488405E0,2.882051637E1
1.712473500E0,-2.880461456E1,-1.770194019E1,-5.629112754E0,3.427464685E1
1.722514500E0,-3.434696106E1,-9.280405984E0,-1.776421771E1,3.976690962E1
1.732555500E0,-3.211266512E1,-2.914679128E0,-2.538384839E1,4.103728030E1
1.742596500E0,-2.751605429E1,-7.288732066E0,-2.409656281E1,3.729481463E1
1.752637500E0,-1.991967916E1,-1.137674740E1,-1.983402680E1,3.032511531E1
1.762679500E0,-7.605883874E0,-1.277288123E1,-1.617870777E1,2.197149402E1
1.772720500E0,4.602783735E0,-1.299081281E1,-1.232515876E1,1.848935840E1
1.782761500E0,1.189200521E1,-1.238289651E1,7.793736202E-1,1.718613794E1
1.792802500E0,1.740223530E1,-7.214302858E0,1.599482453E1,2.471271679E1
1.802843500E0,1.987448252E1,-2.724242916E0,3.789040649E1,4.287306216E1
1.812885500E0,1.733655002E1,-5.573847796E0,4.057311371E1,4.447247803E1
1.822926500E0,1.590093579E1,-5.758231555E0,3.731738404E1,4.097052771E1
1.832967500E0,1.369034796E1,-6.547479953E0,3.778813168E1,4.072146874E1
1.843008500E0,8.881269196E0,-1.145140231E1,3.266705133E1,3.573720470E1
1.853050500E0,1.728364149E0,-1.794763083E1,2.205490924E1,2.848725534E1
1.863091500E0,-1.187390808E1,-1.934858628E1,1.172711022E1,2.555156744E1
1.873132500E0,-2.190651860E1,-1.886270488E1,-1.435383269E0,2.894404114E1
1.883173500E0,-2.689848774E1,-1.472079810E1,-1.372738423E1,3.359570832E1
1.893215500E0,-2.732247169E1,-5.268735990E0,-2.288243760E1,3.602614313E1
1.903256500E0,-2.655814237E1,-4.661875112E0,-2.518519742E1,3.689664179E1
1.913297500E0,-2.216647411E1,-7.394288927E0,-2.223193486E1,3.225348060E1
1.923338500E0,-8.506667325E0,-7.424869865E0,-1.876953886E1,2.190405602E1
1.933379500E0,6.696417891E0,-6.787506986E0,-1.531628205E1,1.804163960E1
1.943421500E0,1.719315290E1,-7.952277607E0,-8.418221172E0,2.072943978E1
1.953462500E0,1.876456521E1,-7.075495221E0,9.735357369E0,2.229234674E1
1.963503500E0,1.953972241E1,-2.202717472E0,2.725180926E1,3.360526482E1
1.973544500E0,1.667181282E1,-1.531469979E0,4.012415514E1,4.347691995E1
1.983586500E0,1.300263003E1,-1.303526217E0,4.310454177E1,4.504185930E1
1.993627500E0,1.034650542E1,-3.520538378E0,3.973674202E1,4.121229224E1
2.003668500E0,-7.051800549E-2,-9.031132164E0,2.935232793E1,3.071034802E1
2.013709500E0,-1.463566498E1,-1.312038711E1,1.654211807E1,2.569024946E1
2.023750500E0,-2.434920229E1,-1.522939359E1,4.527047675E0,2.907425394E1
2.033792500E0,-2.672940966E1,-1.206954188E1,-5.786904547E0,2.989353519E1
2.043833500E0,-2.496330027E1,-6.443767889E0,-1.366879513E1,2.918089212E1
2.053874500E0,-1.839522350E1,-4.929263606E0,-1.712435457E1,2.561104072E1
2.063915500E0,-9.994404809E0,-4.676907134E0,-1.556050621E1,1.907592570E1
2.073957500E0,-2.254438141E0,-4.229653024E0,-1.070465908E1,1.172869055E1
2.083998500E0,5.999930892E0,-2.187628732E0,-3.268205295E0,7.173984669E0
2.094039500E0,1.362454457E1,5.172347564E-1,8.096609108E0,1.585720106E1
2.104080500E0,1.839853887E1,1.946444535E0,2.062873826E1,2.770992098E1
2.114121500E0,1.869981432E1,-8.234110478E-1,2.520741451E1,3.139705093E1
2.124163500E0,1.454388708E1,-2.193711006E0,2.785165406E1,3.149685148E1
2.134204500E0,1.132675020E1,-1.970229839E0,3.037364003E1,3.247668525E1
2.144245500E0,9.843953612E0,-2.969824219E0,2.963858422E1,3.137146718E1
2.154286500E0,1.346409112E0,-6.217366623E0,2.440457309E1,2.522006449E1
2.164328500E0,-1.367377695E1,-1.025930941E1,1.542006545E1,2.302181626E1
2.174369500E0,-2.241751379E1,-1.371408064E1,4.140596421E0,2.660386196E1
2.184410500E0,-2.642802779E1,-1.326678034E1,-6.020638806E0,3.017774354E1
2.194451500E0,-2.311214898E1,-1.017828454E1,-1.363342298E1,2.869911372E1
2.204493500E0,-8.482528850E0,-7.225869820E0,-1.645065241E1,1.986933454E1
2.214534500E0,8.548181387E0,-3.071721892E0,-1.512673988E1,1.764440817E1
2.224575500E0,2.120816458E1,1.462045403E0,-1.348468034E1,2.517459882E1
2.234616500E0,2.861084719E1,5.023607261E0,-1.067034762E1,3.094630067E1
2.244657500E0,2.876312505E1,5.914038802E0,-1.425233088E0,2.939939638E1
2.254699500E0,2.721140734E1,2.956809194E0,6.383602964E0,2.810611671E1
2.264740500E0,2.478978531E1,-2.245272046E0,1.644328024E1,2.983213314E1
2.274781500E0,2.182662692E1,-5.305416158E0,2.665978803E1,3.486105823E1
2.284822500E0,2.166258212E1,-4.790351304E0,3.355621169E1,4.022728269E1
2.294864500E0,2.293093909E1,-4.312469478E0,3.451898615E1,4.166516249E1
2.304905500E0,2.140793120E1,-7.905406911E0,3.010083936E1,3.777374097E1
2.314946500E0,8.094597082E0,-1.677678671E1,2.290871265E1,2.952612724E1
2.324987500E0,-1.720599924E1,-2.548875679E1,1.367080189E1,3.365433043E1
2.335028500E0,-3.552120125E1,-2.528099821E1,1.813767411E0,4.363684637E1
2.345070500E0,-3.827379439E1,-1.844577502E1,-1.039888127E1,4.374090402E1
2.355111500E0,-3.138101706E1,-1.511762758E1,-2.047853966E1,4.040645346E1
2.365152500E0,-1.392725609E1,-1.312404045E1,-2.116032968E1,2.853013235E1
2.375193500E0,4.803066074E0,-8.283908874E0,-1.724102757E1,1.972170433E1
2.385235500E0,2.036018032E1,-2.696363391E0,-1.492575236E1,2.538868649E1
2.395276500E0,2.966768698E1,-1.359398117E0,-1.376033913E1,3.273173608E1
2.405317500E0,2.934198537E1,-4.008174528E0,-8.030829102E0,3.068406402E1
2.415358500E0,2.579563972E1,-5.157723092E0,1.846973457E0,2.637097736E1
2.425399500E0,2.624876853E1,-5.382148585E0,1.290555105E1,2.974085777E1
2.435441500E0,2.603783139E1,-4.754941735E0,2.282944312E1,3.495370664E1
2.445482500E0,2.739935556E1,-4.833037148E0,2.786282458E1,3.937537209E1
2.455524500E0,2.835615183E1,-4.751805289E0,2.953461370E1,4.121825332E1
2.465565500E0,2.542493794E1,-9.175223345E0,2.932882914E1,3.988473908E1
2.475607500E0,1.028655041E1,-2.019883459E1,2.423941029E1,3.318666976E1
2.485648500E0,-1.768117439E1,-2.760267260E1,1.726800077E1,3.705017292E1
2.495689500E0,-3.991649011E1,-2.466271596E1,9.846303023E0,4.794293925E1
2.505730500E0,-4.452838556E1,-1.934192981E1,-5.874563080E-1,4.855133854E1
2.515771500E0,-4.062426048E1,-1.805749066E1,-1.014322814E1,4.559921694E1
2.525813500E0,-2.789496790E1,-1.686491244E1,-1.340076344E1,3.524393517E1
2.535854500E0,-1.004185146E1,-1.416577805E1,-1.143345721E1,2.079018981E1
2.545895500E0,4.102681906E0,-8.562770190E0,-8.702211666E0,1.287949999E1
2.555936500E0,1.724536737E1,-3.228117954E0,-6.411046286E0,1.867953307E1
2.565978500E0,2.810274520E1,1.600108105E-1,-3.178524794E0,2.828237810E1
2.576019500E0,3.208600649E1,2.681819027E0,4.622222219E0,3.252797111E1
2.586060500E0,3.021881512E1,4.709306556E0,1.573160861E1,3.439240999E1
2.596101500E0,2.421930289E1,2.524377483E0,2.363256286E1,3.393295068E1
2.606142500E0,1.924648571E1,-2.999229866E-1,2.619596583E1,3.250762667E1
2.616184500E0,1.822961632E1,-2.101538422E0,2.576903255E1,3.163508201E1
2.626225500E0,1.694333763E1,-4.908645154E0,2.391145400E1,2.971412324E1
2.636266500E0,1.079528624E1,-1.070776278E1,2.062798280E1,2.562631583E1
2.646307500E0,-7.579318219E0,-1.799557566E1,1.595761636E1,2.521769870E1
2.656349500E0,-3.070533387E1,-1.942294182E1,9.258242698E0,3.749377621E1
2.666390500E0,-4.006359202E1,-1.274362761E1,3.642423588E-1,4.204312218E1
2.676431500E0,-3.830529217E1,-1.102782767E1,-7.795781558E0,4.061628493E1
2.686472500E0,-2.872500823E1,-1.020448357E1,-1.273810083E1,3.303811125E1
2.696513500E0,-1.110611253E1,-7.725727821E0,-1.340649605E1,1.904643647E1
2.706555500E0,5.824877535E0,-3.891968134E0,-1.281373690E1,1.460371417E1
2.716596500E0,1.899162780E1,-2.184060177E0,-1.307771530E1,2.316200947E1
2.726637500E0,2.867552207E1,-2.790527537E0,-1.240968962E1,3.136993794E1
2.736678500E0,3.385947636E1,-5.617323598E0,-8.777268280E0,3.542681050E1
2.746720500E0,3.186983493E1,-5.343487964E0,5.234815707E0,3.273595176E1
2.756761500E0,3.428221601E1,-1.222257521E0,1.361219057E1,3.690604260E1
2.766802500E0,3.656963742E1,1.066940271E0,1.991779635E1,4.165567614E1
2.776843500E0,3.214892020E1,-1.719827507E0,2.141462041E1,3.866648217E1
2.786885500E0,2.525379696E1,-7.344109291E0,1.882178724E1,3.234114835E1
2.796926500E0,1.548484207E1,-1.310211924E1,1.578978373E1,2.570531332E1
2.806967500E0,3.504407372E0,-1.837059736E1,1.311967024E1,2.284481267E1
2.817008500E0,-1.483992342E1,-2.132781265E1,9.898806342E0,2.780441128E1
2.827049500E0,-3.350380426E1,-1.862948635E1,3.444139535E0,3.848928109E1
2.837091500E0,-3.763855522E1,-1.311855108E1,-7.781349460E0,4.061165622E1
2.847132500E0,-3.501982122E1,-1.134895675E1,-1.652742518E1,4.035272582E1
2.857173500E0,-2.757851191E1,-1.263778015E1,-1.674673904E1,3.465171099E1
2.867214500E0,-1.585531581E1,-1.413677820E1,-1.221573046E1,2.450435896E1
2.877256500E0,-5.197858965E0,-1.308860398E1,-8.887440348E0,1.665280421E1
2.887297500E0,4.333820586E0,-1.241592041E1,-7.587180970E0,1.518230535E1
2.897338500E0,1.379367762E1,-1.161073660E1,-5.576935126E0,1.887265090E1
2.907379500E0,2.441714460E1,-9.602771754E0,1.698152755E0,2.629246847E1
2.917420500E0,3.424850097E1,-6.041665978E0,1.546972468E1,3.806276301E1
2.927462500E0,3.709242060E1,-1.406796232E0,3.125137961E1,4.852293756E1
2.937503500E0,3.134593844E1,-3.631118581E0,3.411567328E1,4.647184139E1
2.947544500E0,2.539245549E1,-8.954535393E0,2.629417801E1,3.763434996E1
2.957585500E0,2.091142540E1,-1.170052644E1,2.179532327E1,3.239176049E1
2.967627500E0,1.399902482E1,-1.508291616E1,1.790585950E1,2.727795557E1
2.977668500E0,1.566187530E0,-2.206208494E1,1.316859974E1,2.574102862E1
2.987709500E0,-1.666087852E1,-2.550627973E1,8.257561905E0,3.156489359E1
2.997750500E0,-3.348657603E1,-1.868203060E1,3.552134977E0,3.850956640E1
3.007791500E0,-4.554760202E1,-1.361330505E1,-2.437219471E0,4.760090507E1
3.017833500E0,-4.823665230E1,-1.462504877E1,-7.452500297E0,5.095298262E1
3.027874500E0,-3.795252030E1,-1.616276826E1,-7.175283219E0,4.187019899E1
3.037915500E0,-2.319895206E1,-2.019332183E1,-4.785270658E0,3.112652307E1
3.047956500E0,-1.225639083E1,-2.397010625E1,-3.414472517E0,2.713749680E1
3.057998500E0,-1.865838621E0,-2.337671911E1,-2.524113189E0,2.358651092E1
3.068039500E0,1.467054947E1,-1.703429458E1,1.593452512E0,2.253733135E1
3.078080500E0,3.331765464E1,-1.108549174E1,1.140980171E1,3.692069627E1
3.088121500E0,4.347292103E1,-7.445091290E0,2.628503062E1,5.134420203E1
3.098162500E0,3.642239752E1,-4.674027380E0,3.023326710E1,4.756561796E1
3.108204500E0,2.537406951E1,-9.257473204E0,2.629805588E1,3.769790387E1
3.118245500E0,2.005828390E1,-1.598667585E1,2.353056637E1,3.480798919E1
3.128286500E0,1.409585705E1,-1.743714435E1,2.449231874E1,3.320573544E1
3.138327500E0,7.516202788E0,-1.887596520E1,2.522266638E1,3.238793396E1
3.148369500E0,8.086450741E-1,-2.366930443E1,2.187399171E1,3.223912828E1
3.158410500E0,-1.089868139E1,-2.504310073E1,1.502489541E1,3.117187245E1
3.168451500E0,-2.713123266E1,-2.070161795E1,1.024236418E1,3.563098083E1
3.178492500E0,-3.908825774E1,-1.594243465E1,6.118217726E0,4.265542994E1
3.188534500E0,-4.213026466E1,-1.383437190E1,9.582466713E-1,4.435388690E1
3.198575500E0,-3.718539601E1,-1.546701274E1,-2.702894731E0,4.036443731E1
3.208616500E0,-2.694768856E1,-1.990001614E1,-3.780533068E0,3.371173373E1
3.218657500E0,-1.714828956E1,-2.302901326E1,-4.034843971E0,2.899446934E1
3.228698500E0,-7.036535808E0,-2.438610524E1,-4.725121520E0,2.581708230E1
3.238740500E0,6.204592795E0,-2.222338623E1,-4.362873062E0,2.348213211E1
3.248781500E0,2.288922037E1,-1.501871140E1,1.479330942E0,2.741653737E1
3.258822500E0,3.795233786E1,-1.067203161E1,1.565401255E1,4.241839597E1
3.268863500E0,4.087981655E1,-5.904297341E0,3.290441320E1,5.280833775E1
3.278905500E0,2.591327868E1,-8.298350912E-1,4.015337251E1,4.779623377E1
3.288946500E0,1.505679665E1,-3.976210139E0,4.006785347E1,4.298779192E1
3.298987500E0,1.040898175E1,-8.662248285E0,3.602952777E1,3.849036656E1
3.309028500E0,1.970812806E0,-9.185143147E0,3.067890211E1,3.208498080E1
3.319069500E0,-1.263389526E1,-1.246430612E1,2.138794541E1,2.779241705E1
3.329111500E0,-2.989102255E1,-1.290951780E1,8.186313583E0,3.357297438E1
3.339152500E0,-4.287364224E1,-8.252767773E0,-6.775661112E0,4.418333349E1
3.349193500E0,-4.391355785E1,-3.831985642E0,-1.883449090E1,4.793561019E1
3.359234500E0,-3.169104111E1,-8.994426268E0,-2.071517881E1,3.891452716E1
3.369276500E0,-2.126722146E1,-1.984630362E1,-1.539202571E1,3.291025572E1
3.379317500E0,-1.793313676E1,-2.830813683E1,-9.105000039E0,3.472533701E1
3.389358500E0,-1.243374273E1,-3.120716998E1,1.064445848E0,3.360979710E1
3.399399500E0,-4.211032054E-1,-2.646124465E1,1.400199637E1,2.994045255E1
3.409440500E0,1.901728070E1,-1.831388288E1,3.703295676E1,4.548071193E1
3.419482500E0,2.921033648E1,-1.798544770E0,5.689418949E1,6.397989776E1
3.429523500E0,2.800876173E1,4.714092210E0,5.101658235E1,5.839011109E1
3.439564500E0,2.348647837E1,-5.380147668E0,3.773113302E1,4.476828178E1
3.449605500E0,7.852715896E0,-7.306354405E0,3.640030907E1,3.794773330E1
3.459647292E0,-4.144127847E0,-9.006205484E0,3.735090963E1,3.864422316E1
3.469688292E0,-8.153252256E0,-1.264281928E1,3.141823342E1,3.483420435E1
3.479729292E0,-9.222501007E0,-1.231322226E1,2.385472198E1,2.838516739E1
3.489770292E0,-9.015445254E0,-1.120413759E1,1.422755038E1,2.022953638E1
3.499812292E0,-1.268349017E1,-1.230948355E1,-1.675613201E-1,1.767547411E1
3.509853292E0,-2.184507372E1,-5.366686208E0,-1.538312274E1,2.725158769E1
3.519894292E0,-2.581346671E1,1.846606836E0,-2.524194816E1,3.615108529E1
3.529935292E0,-1.740678561E1,-5.196862015E0,-2.539782557E1,3.122584032E1
3.539976292E0,-1.133653142E1,-9.494972486E0,-1.927296424E1,2.429235678E1
3.550018292E0,-8.705631702E0,-9.500332628E0,-1.448602537E1,1.938786410E1
3.560059292E0,-7.355758699E0,-1.027542667E1,-1.042172868E1,1.637998804E1
3.570100292E0,-4.141234353E0,-9.584225555E0,-6.590966281E0,1.234698497E1
3.580141292E0,-4.538122009E-1,-6.060681124E0,3.247676890E0,6.890951050E0
3.590183292E0,2.887771119E0,1.870032244E0,1.506941377E1,1.545714961E1
3.600224292E0,1.545184974E1,2.666611004E0,1.631401234E1,2.262780310E1
3.610265292E0,2.001761300E1,1.163738002E0,1.941586201E1,2.791119514E1
3.620306292E0,1.949374809E1,-2.551860859E0,2.082191155E1,2.863686800E1
3.630347292E0,1.453973322E1,-7.164227303E0,2.545381150E1,3.017658885E1
3.640389292E0,8.179258917E0,-7.404460158E0,3.046923733E1,3.240525776E1
3.650430292E0,5.914749824E0,-8.045015032E0,3.036363896E1,3.196337127E1
3.660471292E0,5.549633306E0,-8.098411805E0,2.626737905E1,2.804207385E1
3.670512292E0,5.650988942E0,-7.987937436E0,2.007924032E1,2.233644359E1
3.680554292E0,4.669646939E0,-8.722590966E0,1.404415596E1,1.717927567E1
3.690595292E0,-2.214694324E-1,-1.174646217E1,7.516201619E0,1.394710396E1
3.700636292E0,-1.007881171E1,-1.449890796E1,-4.248084033E-1,1.766299068E1
3.710677292E0,-2.128606353E1,-1.206348183E1,-8.074787300E0,2.576482649E1
3.720718292E0,-2.591532521E1,-9.334585115E0,-1.417705148E1,3.097946657E1
3.730760292E0,-2.421740605E1,-7.602722869E0,-1.610356403E1,3.006008858E1
3.740801292E0,-1.984538444E1,-6.600866202E0,-1.415525306E1,2.525434432E1
3.750842292E0,-1.333450981E1,-6.001427194E0,-1.147060808E1,1.858497053E1
3.760883292E0,-3.979261509E0,-5.923440540E0,-9.383228102E0,1.178841124E1
3.770925292E0,8.052070867E0,-3.672581187E0,-6.209229637E0,1.081102356E1
3.780966292E0,2.142083483E1,-1.688181206E0,-1.370404916E0,2.153091104E1
3.791007292E0,3.147025960E1,-3.151610060E0,7.986861548E0,3.262054326E1
3.801048292E0,3.240833075E1,-2.338775164E0,2.474093767E1,4.083973271E1
3.811089292E0,2.161388650E1,9.223286873E-1,3.469305074E1,4.088543200E1
3.821131292E0,1.421700434E1,5.075424117E-1,3.483033635E1,3.762357162E1
3.831172292E0,1.518871451E1,-4.778210730E0,2.742757188E1,3.171435079E1
3.841213292E0,1.198974142E1,-9.017690585E0,1.896655611E1,2.418269823E1
3.851254292E0,1.041532072E0,-1.329141349E1,1.290558730E1,1.855534007E1
3.861296292E0,-1.375666357E1,-1.518446125E1,8.084420003E0,2.202660897E1
3.871337292E0,-2.406784831E1,-1.418082644E1,1.761486141E-1,2.793542892E1
3.881378292E0,-2.769584448E1,-1.224791821E1,-9.903696953E0,3.186148953E1
3.891419292E0,-2.703101372E1,-9.210024803E0,-1.710593233E1,3.328833400E1
3.901461292E0,-2.225229720E1,-1.051897958E1,-1.825237836E1,3.064250280E1
3.911502292E0,-1.923326282E1,-1.445093740E1,-1.495807460E1,2.832828950E1
3.921543292E0,-1.480450567E1,-1.697962662E1,-1.032193776E1,2.477949773E1
3.931584292E0,-9.415881878E0,-1.653440793E1,-1.185961515E-1,1.902786226E1
3.941625292E0,-3.196842366E-1,-1.302647615E1,6.493394963E0,1.455869008E1
3.951667292E0,1.753074307E1,-7.941621641E0,1.454282990E1,2.412240055E1
3.961708292E0,3.072073777E1,-3.292673553E0,2.759141320E1,4.142332086E1
3.971749292E0,3.133150284E1,-3.591550473E0,3.200247551E1,4.493017631E1
3.981790292E0,2.165261144E1,-6.161525713E0,3.395874804E1,4.074305524E1
3.991832292E0,1.231528632E1,-7.472998881E0,3.433833057E1,3.723752054E1
4.001873292E0,7.414498073E0,-8.942163854E0,3.087770511E1,3.299044936E1
4.011914292E0,5.431237714E0,-1.425061881E1,2.162891385E1,2.646485205E1
4.021955292E0,-2.190611689E0,-1.667678763E1,1.284817583E1,2.116576593E1
4.031996292E0,-1.330325527E1,-1.791456951E1,3.478030289E0,2.258329241E1
4.042038292E0,-2.078034954E1,-1.761080315E1,-9.996640785E0,2.901544660E1
4.052079292E0,-2.246286713E1,-1.164665020E1,-2.071577289E1,3.270119428E1
4.062120292E0,-1.879529467E1,-8.021492853E0,-2.511822809E1,3.238105668E1
4.072161292E0,-1.314502260E1,-6.800237544E0,-2.282653120E1,2.720451022E1
4.082203292E0,-2.204414334E0,-3.677407479E0,-1.893715514E1,1.941645212E1
4.092244292E0,1.060944653E1,-9.315807366E-1,-1.509634137E1,1.847505673E1
4.102285292E0,1.944530859E1,1.512300467E0,-1.263115408E1,2.323689162E1
4.112326292E0,2.181881270E1,1.782303252E0,-1.160583429E1,2.477766297E1
4.122367292E0,2.005091874E1,-1.718208120E0,-9.812494422E0,2.238920786E1
4.132409292E0,1.362220685E1,-5.584262272E0,4.712792081E0,1.545829595E1
4.142450292E0,1.547305643E1,-4.694708397E0,1.892188455E1,2.488962589E1
4.152491292E0,1.641142812E1,-2.054329172E0,3.375410017E1,3.758848919E1
4.162532292E0,1.829746273E1,-3.075672855E0,3.656728450E1,4.100516067E1
4.172574292E0,1.762316884E1,-2.876183984E0,3.509588414E1,3.937727260E1
4.182615292E0,1.379248829E1,-5.558681872E0,2.716729360E1,3.097084951E1
4.192656292E0,7.043471775E0,-1.220118844E1,1.570642933E1,2.109908567E1
4.202697292E0,-5.971941440E0,-1.715265977E1,6.153431413E0,1.917661440E1
4.212739292E0,-2.128906198E1,-1.893275803E1,-3.110221129E0,2.865915146E1
4.222780292E0,-2.856256322E1,-1.228657416E1,-1.378788888E1,3.401302400E1
4.232821292E0,-2.531696560E1,-4.595098740E0,-2.406123394E1,3.522792441E1
4.242862292E0,-1.919485246E1,-7.207877938E0,-2.631084257E1,3.335650315E1
4.252903292E0,-1.453182895E1,-7.696912742E0,-2.144411611E1,2.702344601E1
4.262945292E0,-3.640512718E0,-4.428879356E0,-1.652514828E1,1.749139305E1
4.272986292E0,9.368392546E0,-4.665762926E0,-1.183784596E1,1.580097211E1
4.283027292E0,1.529943622E1,-5.120205018E0,-1.906500451E0,1.624573766E1
4.293068292E0,1.451640283E1,-5.397967057E0,6.403999221E0,1.675933189E1
4.303109292E0,1.404188958E1,-3.305568418E0,1.772976124E1,2.285707504E1
4.313151292E0,1.377033787E1,-4.348246837E0,2.830780237E1,3.177831227E1
4.323192292E0,1.472008591E1,-7.283714570E0,3.120324065E1,3.526153222E1
4.333233292E0,1.228430193E1,-4.113160701E0,3.065247270E1,3.327756372E1
4.343274292E0,9.490747873E0,-2.068857164E0,2.688748095E1,2.858830350E1
4.353316292E0,7.425890204E0,-5.999448497E0,1.804223411E1,2.041223748E1
4.363357292E0,4.720561861E0,-1.203271261E1,7.736156915E0,1.506379769E1
4.373398292E0,-5.061813553E0,-1.468075520E1,5.095661330E-1,1.553725160E1
4.383439292E0,-1.936286752E1,-1.293785341E1,-6.630248460E0,2.421298999E1
4.393481292E0,-2.541038539E1,-7.282258614E0,-1.690623705E1,3.137737764E1
4.403522292E0,-2.212857012E1,-4.626404732E0,-2.368877098E1,3.274500125E1
4.413563292E0,-1.661119824E1,-5.472917837E0,-2.528337218E1,3.074302596E1
4.423604292E0,-1.204496604E1,-7.130014075E0,-2.166951925E1,2.579702254E1
4.433645292E0,-5.492501332E0,-8.171713670E0,-1.684085933E1,1.950792193E1
4.443687292E0,2.890533343E0,-8.055620127E0,-9.515385116E0,1.279807613E1
4.453728292E0,6.522822245E0,-7.686523409E0,-1.471831888E0,1.018803913E1
4.463769042E0,1.228536027E1,-7.564982015E0,7.108160691E0,1.608368672E1
4.473810042E0,1.716212875E1,-5.452369552E0,1.847119988E1,2.579636063E1
4.483852042E0,1.572088364E1,-2.492311937E0,2.925051153E1,3.330090428E1
4.493893042E0,8.418215910E0,-3.208925638E0,3.094619705E1,3.223089628E1
4.503934042E0,3.035244037E0,-4.724386525E0,2.606340478E1,2.666146288E1
4.513975042E0,-2.185162961E-2,-4.559096264E0,2.179704937E1,2.226874934E1
4.524016042E0,-6.241699811E0,-6.746093497E0,1.502108771E1,1.760970386E1
4.534058042E0,-1.331368553E1,-9.931094667E0,5.816446434E0,1.759863384E1
4.544099042E0,-2.084712474E1,-9.874567294E0,-2.882883139E0,2.324695043E1
4.554140042E0,-2.368214257E1,-7.700443291E0,-1.290697660E1,2.804872098E1
4.564181042E0,-1.904796338E1,-5.494482953E0,-1.901598730E1,2.747038451E1
4.574223042E0,-1.115140507E1,-6.592420483E0,-1.843065529E1,2.252782495E1
4.584264042E0,-3.833924286E0,-6.504894097E0,-1.358101322E1,1.553887199E1
4.594305042E0,1.376921345E0,-3.843386543E0,-7.682666586E0,8.700051631E0
4.604346042E0,7.693850555E0,-2.271701168E0,-2.946965114E0,8.546377358E0
4.614387042E0,1.213393844E1,-1.309571215E0,4.080471257E0,1.286847639E1
4.624429042E0,1.102081452E1,1.027435312E0,2.085245273E1,2.360802323E1
4.634470042E0,9.137434545E0,-2.086556101E0,3.269545476E1,3.401233877E1
4.644511042E0,7.042397642E0,-8.221523176E0,3.110365088E1,3.293365916E1
4.654552042E0,1.730143457E0,-6.943458660E0,3.069816284E1,3.152113920E1
4.664594042E0,-1.254528012E0,-5.471183553E0,2.920029564E1,2.973491139E1
4.674635042E0,-2.213307949E0,-5.770974392E0,2.444341263E1,2.521276063E1
4.684676042E0,-1.029443129E1,-7.702312061E0,1.642211098E1,2.085633371E1
4.694717042E0,-2.044088827E1,-1.187789588E1,5.885362303E0,2.436291881E1
4.704758042E0,-2.918630910E1,-1.185911463E1,-3.035559202E0,3.164954752E1
4.714800042E0,-2.841352003E1,-8.142767614E0,-1.069516788E1,3.143277590E1
4.724841042E0,-2.091492438E1,-7.006272374E0,-1.413274362E1,2.619649512E1
4.734882042E0,-1.088213961E1,-9.083727284E0,-1.226044412E1,1.874175963E1
4.744923042E0,-9.893652606E-1,-8.373526810E0,-7.129300715E0,1.104181704E1
4.754965042E0,9.361340804E0,-5.202797524E0,-1.281940051E0,1.078643472E1
4.765006042E0,1.870805071E1,1.851608545E-1,6.349937035E0,1.975720492E1
4.775047042E0,2.121786160E1,7.162953195E0,2.206375257E1,3.143747329E1
4.785088042E0,2.246252566E1,2.757477027E0,2.770942873E1,3.577682461E1
4.795129042E0,1.770481117E1,-3.079190248E0,2.576181241E1,3.141039207E1
4.805171042E0,1.045947480E1,-5.073753567E0,2.646246789E1,2.890338726E1
4.815212042E0,5.950179858E0,-6.108290908E0,2.863011025E1,2.987304925E1
4.825253042E0,4.064273885E0,-9.611521527E0,2.683643241E1,2.879398849E1
4.835294042E0,1.058749491E-1,-1.327280999E1,2.089863637E1,2.475745740E1
4.845336042E0,-1.036113399E1,-1.641658185E1,1.206958398E1,2.285896137E1
4.855377042E0,-2.214479497E1,-1.940839511E1,2.773390810E0,2.957650152E1
4.865418042E0,-2.682266807E1,-1.786260647E1,-5.722894492E0,3.273041023E1
4.875459042E0,-2.232241701E1,-1.404113880E1,-1.466807142E1,3.017608655E1
4.885500042E0,-1.444881837E1,-1.109214821E1,-1.930369370E1,2.654122632E1
4.895542042E0,-3.487532892E0,-9.185633728E0,-1.758265699E1,2.014171243E1
4.905583042E0,8.130391982E0,-7.286118361E0,-1.380539310E1,1.760055889E1
4.915624042E0,1.783040001E1,-5.183807521E0,-9.524932449E0,2.086910068E1
4.925665042E0,2.276567338E1,-1.064907194E0,-4.794197602E0,2.328935900E1
4.935707042E0,2.161505361E1,1.953495254E0,3.407008839E0,2.196894161E1
4.945748042E0,1.754445713E1,1.962327766E0,1.840114556E1,2.550021302E1
4.955789042E0,1.424498911E1,-5.556366960E0,2.636950652E1,3.048186022E1
4.965830042E0,1.001595297E1,-9.107123163E0,2.857852378E1,3.162263473E1
4.975871042E0,6.603876348E0,-6.745702318E0,3.332283762E1,3.463419104E1
4.985913042E0,6.378756791E0,-7.898810082E0,3.416732758E1,3.564387764E1
4.995954042E0,5.169191236E0,-1.511695865E1,2.575364034E1,3.030664890E1
5.005995042E0,-7.910198704E0,-1.891366103E1,1.538394018E1,2.563129791E1
5.016036042E0,-2.511976942E1,-2.122836788E1,6.168349414E0,3.346184324E1
5.026078042E0,-2.680055390E1,-2.246388455E1,-4.471878610E0,3.525469467E1
5.036119042E0,-2.181137270E1,-1.949505085E1,-1.382997012E1,3.235832289E1
5.046160042E0,-1.199808774E1,-1.566142565E1,-1.954204960E1,2.776915673E1
5.056201042E0,3.985757473E-1,-1.015508513E1,-1.853096427E1,2.113483507E1
5.066242042E0,1.372527923E1,-6.527236893E0,-1.490222083E1,2.128530707E1
5.076284042E0,2.415621377E1,-3.737922653E0,-1.232792917E1,2.737649662E1
5.086325042E0,2.937502214E1,-5.745327920E-1,-1.192073492E1,3.170687520E1
5.096366042E0,2.886036191E1,-2.596900499E0,-7.742492958E0,2.999350895E1
5.106407042E0,2.550908639E1,-5.090127525E0,-1.970716327E-1,2.601272235E1
5.116449042E0,2.191355865E1,-5.422848129E0,1.014062262E1,2.474759709E1
5.126490042E0,1.836537697E1,-2.503878607E0,2.072543015E1,2.780467469E1
5.136531042E0,1.618516543E1,-2.950533085E0,2.635037677E1,3.106457116E1
5.146572042E0,1.428921043E1,-8.951262707E0,2.363875390E1,2.903613825E1
5.156613042E0,7.730169366E0,-1.305450068E1,1.442272342E1,2.093299924E1
5.166655042E0,-3.680118833E0,-1.312386035E1,2.004124394E0,1.377662875E1
5.176696042E0,-1.370892574E1,-1.626136752E1,-3.656154312E0,2.158087539E1
5.186737042E0,-1.753145760E1,-1.178395218E1,-1.140319787E1,2.400513395E1
5.196778042E0,-1.097598158E1,-7.742843791E0,-1.883366527E1,2.313289323E1
5.206820042E0,3.679559255E0,-4.790146651E0,-2.025990057E1,2.114115021E1
5.216861042E0,1.468758474E1,-1.695858600E0,-1.536661137E1,2.132448891E1
5.226902042E0,2.314095470E1,-3.835761774E-1,-9.593587532E0,2.505369906E1
5.236943042E0,2.764114027E1,-3.884451538E-1,-4.854288853E0,2.806684245E1
5.246984042E0,2.535893457E1,1.058752122E0,-5.325322419E-1,2.538661280E1
5.257026042E0,2.072731062E1,2.123873324E0,5.059275861E0,2.144128064E1
5.267067042E0,1.883555158E1,-6.069833770E-1,1.186836258E1,2.227115764E1
5.277108042E0,1.943438949E1,-4.642643035E0,1.755650824E1,2.659850768E1
5.287149042E0,1.825231989E1,-7.535887440E0,2.037678407E1,2.837516713E1
5.297191042E0,1.415388715E1,-1.161481679E1,2.028876243E1,2.732892920E1
5.307232042E0,6.264061317E0,-1.720058121E1,1.783734416E1,2.555913349E1
5.317273042E0,-5.857979207E0,-1.932460334E1,1.431747587E1,2.475371346E1
5.327314042E0,-2.039734288E1,-1.776302722E1,8.495239527E0,2.835041141E1
5.337355042E0,-3.238675686E1,-1.599811066E1,1.303961250E0,3.614611846E1
5.347397042E0,-3.827558130E1,-1.482255368E1,-7.453123026E0,4.171663055E1
5.357438042E0,-3.658645401E1,-1.341280402E1,-1.443346124E1,4.155474380E1
5.367479042E0,-2.567750726E1,-1.658871219E1,-1.467587979E1,3.391019314E1
5.377520042E0,-1.391255268E1,-2.182459911E1,-9.140527137E0,2.744852427E1
5.387562042E0,-4.265962771E0,-2.091347427E1,-1.872267927E0,2.142608764E1
5.397603042E0,6.918996248E0,-1.436209481E1,4.869233167E0,1.666888443E1
5.407644042E0,1.878019248E1,-6.523222779E0,1.027266912E1,2.237802038E1
5.417685042E0,2.583668016E1,9.467899293E-1,1.847984440E1,3.177947611E1
5.427726042E0,2.450749578E1,3.788169239E0,3.125208361E1,3.989561762E1
5.437768042E0,1.800918681E1,-5.416758839E0,3.394809676E1,3.880908862E1
5.447809042E0,9.903564806E0,-1.150074813E1,3.092038043E1,3.444441506E1
5.457850125E0,1.753633184E0,-1.332828135E1,3.082231326E1,3.362637816E1
5.467891125E0,-6.444652573E0,-1.544676618E1,2.962933392E1,3.402989216E1
5.477933125E0,-1.195670349E1,-1.388559819E1,2.652006063E1,3.223486018E1
5.487974125E0,-1.790050695E1,-1.025007548E1,2.218435957E1,3.029254044E1
5.498015125E0,-3.037311612E1,-7.261986317E0,1.491204298E1,3.460681514E1
5.508056125E0,-3.867489701E1,-6.018843711E0,4.797801826E0,3.943340007E1
5.518097125E0,-3.832295544E1,-5.555882810E0,-4.865392715E0,3.902805137E1
5.528139125E0,-3.006112975E1,-6.553940542E0,-8.410055535E0,3.189599806E1
5.538180125E0,-1.694460180E1,-1.256268436E1,-4.389752712E0,2.154554472E1
5.548221125E0,-4.422609386E0,-1.801423998E1,4.108104029E0,1.899865349E1
5.558262125E0,7.770716298E0,-1.900199608E1,1.632890286E1,2.623152598E1
5.568304125E0,1.498595763E1,-9.862579333E0,2.873013974E1,3.387137917E1
5.578345125E0,1.940382610E1,5.113190113E0,4.589629254E1,5.009114542E1
5.588386125E0,3.415126177E1,5.514252974E0,5.133279977E1,6.190130854E1
5.598427125E0,4.205982209E1,-3.767646097E-1,4.044525148E1,5.835228318E1
5.608468125E0,3.325682723E1,-5.790329261E0,3.329979023E1,4.741751258E1
5.618510125E0,1.959513296E1,-1.146977426E1,3.162646212E1,3.893273769E1
5.628551125E0,1.288249665E1,-1.942976902E1,2.747640315E1,3.603369776E1
5.638592125E0,5.598887327E0,-2.104110963E1,2.372353618E1,3.220065221E1
5.648633125E0,-1.061763731E0,-1.949367441E1,1.800758701E1,2.655944040E1
5.658675125E0,-6.613101500E0,-1.933155919E1,1.239704794E1,2.389830726E1
5.668716125E0,-1.878986845E1,-1.661265303E1,6.571051834E0,2.592716952E1
5.678757125E0,-3.084969227E1,-1.243188331E1,-4.167232243E0,3.352045734E1
5.688798125E0,-3.806829751E1,-6.836863918E0,-1.601626861E1,4.186237981E1
5.698839125E0,-3.629076032E1,-2.495194615E0,-2.322534172E1,4.315856553E1
5.708881125E0,-2.291791617E1,-5.802872123E0,-2.077477831E1,3.147214038E1
5.718922125E0,-9.693528142E0,-1.028395893E1,-1.391665977E1,1.983425618E1
5.728963125E0,-4.099324727E0,-1.184222553E1,-5.221771154E0,1.357606948E1
5.739004125E0,-1.667689346E0,-9.915903600E0,5.095054974E0,1.127235189E1
5.749046125E0,-3.410784678E-1,-7.254310092E0,1.359298597E1,1.541137947E1
5.759087125E0,4.074042243E0,-5.139714838E0,1.777763356E1,1.894884545E1
5.769128125E0,1.765170910E1,-1.443030843E0,1.991491485E1,2.665087251E1
5.779169125E0,3.103808020E1,6.525852272E-1,2.217122205E1,3.814906784E1
5.789210125E0,3.862334328E1,-5.737507269E-1,2.610323133E1,4.662049466E1
5.799252125E0,3.614126573E1,-4.151628655E0,2.867558756E1,4.632187853E1
5.809293125E0,2.833836460E1,-9.704869986E0,2.631779140E1,3.987321850E1
5.819334125E0,2.206463433E1,-1.872207584E1,2.114669163E1,3.584057447E1
5.829375125E0,1.407686997E1,-2.592353704E1,1.652376015E1,3.381157627E1
5.839417125E0,4.297846469E0,-2.871903237E1,1.296076514E1,3.179993298E1
5.849458125E0,-3.333153242E0,-3.067119314E1,9.298966216E0,3.222270585E1
5.859499125E0,-1.529024908E1,-3.210745642E1,5.508866519E0,3.598649865E1
5.869540125E0,-3.383057006E1,-3.091211948E1,-7.802846164E-2,4.582655005E1
5.879581125E0,-5.188727018E1,-2.401528184E1,-9.034201952E0,5.788470759E1
5.889623125E0,-5.747659088E1,-1.521446214E1,-2.105289762E1,6.307347188E1
5.899664125E0,-4.498157752E1,-1.453670904E1,-2.364162371E1,5.285437160E1
5.909705125E0,-2.847335342E1,-2.316482771E1,-1.816687335E1,4.095578574E1
5.919746125E0,-1.683186982E1,-2.791693706E1,-9.776473235E0,3.403302286E1
5.929788125E0,-1.411281280E1,-2.942327102E1,-3.329912131E0,3.280226635E1
5.939829125E0,-1.086091422E1,-3.048087095E1,2.051671028E-1,3.235869350E1
5.949870125E0,1.597740275E0,-2.716130605E1,4.496536903E0,2.757731250E1
5.959911125E0,2.894791578E1,-1.763014457E1,2.018537664E1,3.944937586E1
5.969952125E0,5.304417688E1,-7.462189718E0,4.396171552E1,6.929647471E1
5.979994125E0,4.880088055E1,-3.746765982E0,4.439095260E1,6.607662878E1
5.990035125E0,3.522927316E1,-4.423894604E0,3.317495685E1,4.859269794E1
6.000076125E0,2.592239800E1,-1.102707455E1,2.644619860E1,3.863895070E1
6.010117125E0,1.378760587E1,-1.837369405E1,2.395421352E1,3.318877904E1
6.020159125E0,2.382424921E0,-2.254009950E1,2.466059225E1,3.349443005E1
6.030200125E0,-3.807874940E0,-2.491777853E1,2.391502080E1,3.474656556E1
6.040241125E0,-1.385636796E1,-2.508372952E1,2.069036791E1,3.534520822E1
6.050282125E0,-2.869957050E1,-2.284816590E1,1.459621031E1,3.948105099E1
6.060323125E0,-3.480600725E1,-1.948680978E1,4.605916966E0,4.015480504E1
6.070365125E0,-3.284164919E1,-1.495199116E1,-5.847426152E0,3.655582517E1
6.080406125E0,-2.247938903E1,-1.546855875E1,-1.145857568E1,2.959557733E1
6.090447125E0,-9.859769161E0,-2.164447914E1,-9.620100562E0,2.565628305E1
6.100488125E0,-4.124123061E0,-2.798363741E1,-2.477183436E0,2.839416827E1
6.110530125E0,-5.426748807E0,-3.223778150E1,1.231721474E1,3.493476689E1
6.120571125E0,-1.219770116E1,-2.898451233E1,3.475853020E1,4.687260704E1
6.130612125E0,-9.982058998E0,-2.182711809E1,6.088722967E1,6.544707268E1
6.140653125E0,1.870585332E1,-2.098820870E1,5.975162086E1,6.603536968E1
6.150694125E0,3.577720171E1,-8.874633776E0,4.002204404E1,5.441076452E1
6.160736125E0,3.858087612E1,-2.218375146E0,2.515356165E1,4.610972625E1
6.170777125E0,3.092796543E1,-8.665181834E-1,1.327727141E1,3.366861797E1
6.180818125E0,1.817885781E1,-2.954463583E0,8.503636129E0,2.028574755E1
6.190859125E0,6.354511896E0,-2.799066811E0,1.098922669E1,1.299914227E1
6.200900125E0,-3.599715525E-1,-2.108360369E0,1.426975324E1,1.442915869E1
6.210942125E0,1.251217611E0,-3.638973731E0,1.450256715E1,1.500440366E1
6.220983125E0,5.747490220E0,-3.174842802E0,1.357283881E1,1.507763987E1
6.231024125E0,7.176388927E0,-1.955225299E0,1.160917071E1,1.378754179E1
6.241065125E0,1.993209250E0,-2.178299500E0,8.179231435E0,8.695843760E0
6.251107125E0,-8.841653726E0,-4.242857206E0,1.510255111E0,9.922577708E0
6.261148125E0,-1.745372705E1,-6.305265477E0,-7.113703852E0,1.987444951E1
6.271189125E0,-2.036210288E1,-6.025959188E0,-1.488475286E1,2.593228269E1
6.281230125E0,-1.689900170E1,-4.292134616E0,-1.865055269E1,2.553119257E1
6.291271125E0,-9.779624299E0,-7.492540276E0,-1.414380071E1,1.875703360E1
6.301313125E0,-3.216449250E0,-1.074023588E1,-9.771970294E0,1.487244485E1
6.311354125E0,7.402463919E-1,-1.429136923E1,-7.213579558E0,1.602582070E1
6.321395125E0,5.497821128E0,-1.502727172E1,-3.484498479E0,1.637640566E1
6.331436125E0,4.996066875E0,-7.903537556E0,1.090101326E1,1.436170882E1
6.341478125E0,1.017091471E1,1.285596900E0,1.695711952E1,1.981525089E1
6.351519125E0,2.573903400E1,4.218207392E0,1.507635793E1,3.012619646E1
6.361560125E0,3.830213935E1,1.715617219E0,1.088306932E1,3.985521822E1
6.371601125E0,4.227948093E1,-4.788028497E0,1.127142969E1,4.401732445E1
6.381642125E0,3.397342923E1,-9.700710277E0,1.513958504E1,3.843832344E1
6.391684125E0,2.041018337E1,-9.301126762E0,2.035978972E1,3.029203826E1
6.401725125E0,1.232802858E1,-9.565451900E0,2.285301441E1,2.767197908E1
6.411766125E0,1.382890826E1,-1.523552498E1,2.106749227E1,2.944824538E1
6.421807125E0,1.583182170E1,-1.918221896E1,1.828256169E1,3.086836835E1
6.431849125E0,1.291371493E1,-2.062399499E1,1.698415704E1,2.967448051E1
6.441890125E0,1.231729572E0,-2.334293156E1,1.397639375E1,2.723507286E1
6.451931125E0,-1.750715540E1,-2.599425327E1,3.984445066E0,3.159236451E1
6.461972375E0,-3.048978445E1,-2.429866598E1,-9.881226103E0,4.022052652E1
6.472013375E0,-3.142176280E1,-1.602097211E1,-1.742143990E1,3.933834380E1
6.482055375E0,-2.512499683E1,-1.252889915E1,-1.870470610E1,3.373580901E1
6.492096375E0,-1.334726141E1,-1.072219956E1,-1.622340973E1,2.358630903E1
6.502137375E0,-1.930691844E0,-8.406104572E0,-1.329493936E1,1.584757324E1
6.512178375E0,9.895623118E0,-7.698634163E0,-1.162308592E1,1.709644557E1
6.522219375E0,2.035326189E1,-6.430836772E0,-9.732109825E0,2.345900452E1
6.532261375E0,2.648952413E1,-5.783804353E0,-7.526125513E0,2.813876057E1
6.542302375E0,3.022151186E1,-6.059388889E0,-4.678612182E0,3.117603863E1
6.552343375E0,3.299052398E1,-7.179636471E0,3.927420387E0,3.399038810E1
6.562384375E0,3.487803560E1,-4.566283076E0,1.394008488E1,3.783720754E1
6.572426375E0,3.183441952E1,4.517535424E-1,2.497074728E1,4.046198916E1
6.582467375E0,2.425782434E1,-4.930524266E0,2.689497006E1,3.655258576E1
6.592508375E0,2.211675407E1,-1.492379355E1,1.719052984E1,3.173932483E1
6.602549375E0,1.923036962E1,-2.023915231E1,8.889774556E0,2.929946234E1
6.612590375E0,1.446968241E1,-2.577137378E1,3.212387482E0,2.972969641E1
6.622632375E0,1.686620584E0,-3.121789611E1,1.394588854E0,3.129451397E1
6.632673375E0,-1.906700777E1,-3.401713600E1,-1.397061056E0,3.902138012E1
6.642714375E0,-3.332401641E1,-2.621306777E1,-5.864311742E0,4.280192921E1
6.652755375E0,-3.873181147E1,-2.002364031E1,-1.284885645E1,4.545539025E1
6.662797375E0,-4.140840484E1,-2.433969472E1,-1.854228214E1,5.148682314E1
6.672838375E0,-3.678289006E1,-2.715739310E1,-1.610624322E1,4.847593291E1
6.682879375E0,-2.862380462E1,-3.225212589E1,-9.784135426E0,4.421822160E1
6.692920375E0,-2.022003191E1,-4.095462816E1,-5.163475583E0,4.596512524E1
6.702961375E0,-1.333815145E1,-4.729740236E1,-5.914419164E-1,4.914570538E1
6.713003375E0,-6.186030225E0,-5.072523664E1,4.358614535E0,5.128658814E1
6.723044375E0,6.070635424E0,-4.507918392E1,1.031331312E1,4.664064606E1
6.733085375E0,1.951795907E1,-2.999331608E1,2.511728786E1,4.371987975E1
6.743126375E0,2.835056891E1,-1.155452615E1,4.869075643E1,5.751566389E1
6.753168375E0,2.952203517E1,-5.629410378E0,5.222540297E1,6.025556851E1
6.763209375E0,1.773663289E1,-1.547554266E1,3.777223660E1,4.450643128E1
6.773250375E0,9.756729819E-2,-1.865246707E1,3.051882874E1,3.576762439E1
6.783291375E0,-1.166557296E1,-2.175510144E1,2.913098509E1,3.818356090E1
6.793332375E0,-1.780969151E1,-2.666764669E1,2.432305588E1,4.024872096E1
6.803374375E0,-2.609091476E1,-2.473270479E1,1.448342102E1,3.875837979E1
6.813415375E0,-3.346675163E1,-2.121737979E1,9.539932604E-1,3.963723972E1
6.823456375E0,-3.330537783E1,-1.525870335E1,-9.812078100E0,3.792562586E1
6.833497375E0,-2.974951525E1,-1.491079285E1,-1.734945950E1,3.752824464E1
6.843539375E0,-2.068994223E1,-1.850663985E1,-1.818486641E1,3.318521952E1
6.853580375E0,-8.647815603E0,-2.001226163E1,-1.449134166E1,2.617774462E1
6.863621375E0,4.946039852E-1,-1.968755171E1,-1.159623901E1,2.285425748E1
6.873662375E0,9.616553056E0,-1.677198615E1,-8.899134779E0,2.128314384E1
6.883703375E0,2.202744603E1,-1.263430807E1,-4.641812146E0,2.581434755E1
6.893745375E0,3.127171155E1,-1.204933858E1,2.305436679E0,3.359198627E1
6.903786375E0,2.589952136E1,-9.386948685E0,1.801613447E1,3.291627429E1
6.913827375E0,1.339577576E1,-3.868213820E-1,4.410389641E1,4.609501185E1
6.923868375E0,1.311536903E1,-4.588331757E0,5.617140814E1,5.786443455E1
6.933909375E0,1.129278957E1,-2.180281121E0,5.272652338E1,5.396635053E1
6.943951375E0,6.838223981E0,6.141971455E0,4.429069858E1,4.523440175E1
6.953992375E0,6.667344950E0,8.103415852E0,3.059258552E1,3.234231169E1
6.964033375E0,3.425117081E0,1.047532426E1,1.687016558E1,2.015108761E1
6.974074375E0,-4.019109406E0,1.132701800E1,4.844565226E0,1.295856433E1
6.984116375E0,-1.056172038E1,8.024086093E0,-8.435238909E0,1.571906965E1
6.994157375E0,-1.327122422E1,6.664571616E0,-2.077903976E1,2.554036806E1
7.004198375E0,-1.114255004E1,9.042523125E0,-2.672311571E1,3.033230224E1
7.014239375E0,-3.816615066E0,7.634787830E0,-2.453696106E1,2.597920311E1
7.024280375E0,1.696545648E0,6.182511955E0,-1.700878318E1,1.817692016E1
7.034322375E0,3.596228830E0,1.520865469E0,-9.298030661E0,1.008460548E1
7.044363375E0,8.664429297E0,-6.590333612E0,-5.725839150E-1,1.090104052E1
7.054404375E0,1.903714604E1,-1.324387796E1,1.251251291E1,2.635101918E1
7.064445375E0,2.160752473E1,-9.199178803E0,3.841965436E1,4.502865595E1
7.074486375E0,1.337539237E1,6.619592494E0,7.496205779E1,7.643317495E1
7.084528375E0,2.384204989E1,-4.192504494E0,7.192427021E1,7.588887324E1
7.094569375E0,2.941424058E1,-1.531906415E1,4.840239046E1,5.867420795E1
7.104610375E0,2.072180722E1,-1.976113775E1,3.209268635E1,4.300972421E1
7.114651375E0,1.216251144E1,-2.310267883E1,2.220384717E1,3.427347783E1
7.124693375E0,6.145648769E0,-2.614404022E1,1.609282386E1,3.130908523E1
7.134734375E0,1.302927024E0,-2.717246254E1,1.019511283E1,2.905134532E1
7.144775375E0,-3.213537921E0,-2.524179847E1,4.276403267E0,2.580238053E1
7.154816375E0,-6.022456121E0,-2.052223473E1,2.086871266E-3,2.138766234E1
7.164857375E0,-7.023873078E0,-1.408051863E1,-3.707355748E0,1.616602253E1
7.174899375E0,-7.142731769E0,-9.614455660E0,-8.997337012E0,1.498026862E1
7.184940375E0,-6.930195420E0,-8.099822738E0,-1.356114672E1,1.724933150E1
7.194981375E0,-5.625333699E0,-6.789295650E0,-1.662290788E1,1.881648163E1
7.205022375E0,-2.362152624E0,-6.251986232E0,-1.674068366E1,1.802547049E1
7.215064375E0,1.218553895E0,-7.225058227E0,-1.387266649E1,1.568876080E1
7.225105375E0,2.943987127E0,-8.595648499E0,-1.040618796E1,1.381452066E1
7.235146375E0,1.005197474E0,-9.662985796E0,-7.831813855E0,1.247882305E1
7.245187375E0,-2.383804864E0,-9.486550741E0,-6.438382019E0,1.171024908E1
7.255228375E0,-5.312948542E0,-9.524135474E0,-5.764995614E0,1.233579155E1
7.265270375E0,-5.812735206E0,-9.118977224E0,-5.010470906E0,1.191840824E1
7.275311375E0,-5.030126907E0,-9.043373895E0,-4.290855246E0,1.120250985E1
7.285352375E0,-3.460199790E0,-8.424043245E0,-1.473134648E0,9.225378738E0
7.295393375E0,-3.521970653E0,-6.580430183E0,4.688582854E0,8.814144760E0
7.305434375E0,-5.415494086E0,-3.672232693E0,1.366156563E1,1.514764815E1
7.315476375E0,-3.389311071E0,-1.984410506E0,2.115681200E1,2.151827150E1
7.325517375E0,1.943152991E0,-6.754966062E0,2.069206594E1,2.185330645E1
7.335558375E0,5.411911497E0,-1.195804951E1,1.377238440E1,1.902530699E1
7.345599375E0,4.546014873E0,-1.407265997E1,6.777785406E0,1.626789430E1
7.355641375E0,-3.680946507E-1,-1.517045951E1,-5.714554024E-1,1.518568064E1
7.365682375E0,-6.766546472E0,-1.495381315E1,-8.809278277E0,1.862809874E1
7.375723375E0,-1.009342858E1,-1.073713451E1,-1.646696380E1,2.209805998E1
7.385764375E0,-8.524415379E0,-6.666499443E0,-2.108836917E1,2.370289405E1
7.395805375E0,-4.702970805E0,-4.946210591E0,-2.336149764E1,2.433808755E1
7.405847375E0,-6.086400394E-1,-4.358349364E0,-2.262213125E1,2.304618134E1
7.415888375E0,3.983465657E0,-4.493815024E0,-1.862636978E1,1.957048858E1
7.425929375E0,7.603808112E0,-6.006066375E0,-1.620109091E1,1.887766081E1
7.435970375E0,7.981111981E0,-9.127650399E0,-1.613164704E1,2.018024248E1
7.446011375E0,5.341691115E0,-1.194231115E1,-1.727534371E1,2.167002445E1
7.456053375E0,8.864232749E-1,-1.318198636E1,-1.718183036E1,2.167408141E1
7.466095875E0,-3.713961933E0,-1.473810118E1,-1.469169300E1,2.113885008E1
7.476136875E0,-8.241475046E0,-1.560206705E1,-1.210909011E1,2.140038482E1
7.486177875E0,-1.153450996E1,-1.454794739E1,-1.006849956E1,2.112018884E1
7.496219875E0,-1.056301379E1,-1.342835060E1,-5.698306950E0,1.801023493E1
7.506260875E0,-6.462871327E0,-1.205726507E1,2.218172833E0,1.385881082E1
7.516301875E0,1.380627018E0,-8.019505384E0,1.306644888E1,1.539320252E1
7.526342875E0,1.140550167E1,-3.555859653E0,2.219045471E1,2.520210084E1
7.536383875E0,1.720803173E1,-1.674051409E0,2.549662013E1,3.080578586E1
7.546425875E0,1.790039001E1,-1.943279437E0,2.247558366E1,2.879847493E1
7.556466875E0,1.454431510E1,-4.830435137E0,1.556119034E1,2.184080699E1
7.566507875E0,7.794234384E0,-1.091930335E1,9.959823207E0,1.670866103E1
7.576548875E0,-3.466816499E0,-1.903668527E1,3.382109640E0,1.964313795E1
7.586589875E0,-1.725709455E1,-2.103988172E1,-8.684543134E0,2.856405476E1
7.596631875E0,-2.721192891E1,-1.248985261E1,-2.224129976E1,3.729826951E1
7.606672875E0,-2.651093897E1,-6.573721088E0,-2.984480382E1,4.045684131E1
7.616713875E0,-1.931021685E1,-9.784114961E0,-2.600028525E1,3.383235454E1
7.626754875E0,-1.136059154E1,-9.567120695E0,-1.767889631E1,2.308974260E1
7.636796875E0,-3.488492128E0,-7.899274351E0,-1.289894837E1,1.552259584E1
7.646837875E0,4.608720998E0,-7.945312403E0,-9.535866158E0,1.324012998E1
7.656878875E0,1.219127390E1,-9.952339940E0,-6.474018459E0,1.701731896E1
7.666919875E0,1.397250185E1,-1.201941487E1,-2.377905900E0,1.858363738E1
7.676960875E0,8.487504246E0,-9.786715218E0,1.348588954E0,1.302444683E1
7.687002875E0,2.120566577E0,-6.296419224E0,5.444412661E0,8.589722165E0
7.697043875E0,-4.071332936E0,-5.421551217E0,9.586990703E0,1.174220423E1
7.707084875E0,-7.929058898E0,-7.912907719E0,1.376565542E1,1.774760132E1
7.717125875E0,-7.279709228E0,-7.838425886E0,1.690520092E1,2.000552186E1
7.727166875E0,-3.671003024E0,-6.116723177E0,1.705230050E1,1.848435873E1
7.737208875E0,1.150401380E0,-3.478878720E0,1.537788714E1,1.580839756E1
7.747249875E0,4.751305937E0,-1.726530170E0,1.247965156E1,1.346467666E1
7.757290875E0,5.280604668E0,-1.968372763E0,7.072339479E0,9.043078165E0
7.767331875E0,3.421014674E0,-2.208391026E0,8.701425800E-1,4.163830020E0
7.777373875E0,-2.310614973E-1,-2.405809398E0,-5.506131191E0,6.013217855E0
7.787414875E0,-2.922650052E0,-1.636401772E0,-1.133257753E1,1.181723350E1
7.797455875E0,-3.018609878E0,2.410263222E-1,-1.509234188E1,1.539314401E1
7.807496875E0,-1.400555352E0,1.765829891E0,-1.560332537E1,1.576526160E1
7.817537875E0,5.391046585E-1,1.179951746E0,-1.393495220E1,1.399520677E1
7.827579875E0,2.061307093E0,-1.481427169E0,-1.132087726E1,1.160197721E1
7.837620875E0,2.268602583E0,-3.415080920E0,-8.505815386E0,9.442363621E0
7.847661875E0,2.103508349E0,-4.801444641E0,-5.328087568E0,7.474432095E0
7.857702875E0,2.092150717E0,-6.664841757E0,-4.555536479E-1,7.000338521E0
7.867743875E0,2.596273970E0,-6.932724926E0,7.653752105E0,1.064815640E1
7.877785875E0,3.739485029E0,-5.197678871E0,1.720985957E1,1.836243122E1
7.887826875E0,3.308948109E0,-4.967167012E0,2.367767296E1,2.441831449E1
7.897867875E0,-3.888098739E-1,-4.845755426E0,2.447078929E1,2.494898891E1
7.907908875E0,-5.238076115E0,-4.454752116E0,1.904581863E1,2.024908553E1
7.917950875E0,-9.396622319E0,-6.153049589E0,1.066451326E1,1.548833023E1
7.927991875E0,-1.361636197E1,-6.923085206E0,2.940963532E0,1.555582491E1
7.938032875E0,-1.704654450E1,-4.602439334E0,-3.467106521E0,1.799410889E1
7.948073875E0,-1.758455967E1,-3.069534448E0,-8.947552063E0,1.996741016E1
7.958114875E0,-1.463185376E1,-3.775464116E0,-1.127859136E1,1.885608382E1
7.968156875E0,-8.944157755E0,-4.290405595E0,-9.682958130E0,1.386236691E1
7.978197875E0,-2.802731845E0,-3.457719401E0,-6.499249780E0,7.877269638E0
7.988238875E0,4.012360843E0,-1.755221872E0,-3.523801709E0,5.621122827E0
7.998279875E0,1.144603223E1,-2.921108142E-1,1.404344494E0,1.153556093E1
8.008320875E0,1.643316573E1,3.788121584E-1,8.685433080E0,1.859110492E1
8.018362875E0,1.687470302E1,1.571399153E0,1.863584812E1,2.518967511E1
8.028403875E0,1.220920380E1,2.271005934E0,2.705807229E1,2.977182227E1
8.038444875E0,5.163297243E0,-6.697587919E-1,2.772259198E1,2.820727426E1
8.048485875E0,-7.735717204E-1,-4.302640309E0,2.253035804E1,2.295055904E1
8.058526875E0,-4.936667351E0,-4.962440123E0,1.678811043E1,1.818892928E1
8.068568875E0,-9.362671630E0,-4.859898672E0,1.187413261E1,1.588311243E1
8.078609875E0,-1.478648923E1,-6.779347782E0,4.804816731E0,1.696131138E1
8.088650875E0,-1.692342202E1,-7.202335947E0,-3.302885131E0,1.868648993E1
8.098691875E0,-1.391815782E1,-3.860908894E0,-9.847811605E0,1.748145097E1
8.108733875E0,-7.885719920E0,-1.540518546E0,-1.268907309E1,1.501899970E1
8.118774875E0,-2.083157407E0,-3.223754761E0,-1.155679954E1,1.217751022E1
8.128815875E0,5.559494635E-1,-5.403990859E0,-8.368917450E0,9.977523555E0
8.138856875E0,1.678690006E0,-3.598264246E0,-4.674788103E0,6.133445160E0
8.148897875E0,3.202950368E0,-2.640266374E-1,-1.582841862E0,3.582455790E0
8.158939875E0,6.912632139E0,2.061722392E0,1.506217609E0,7.369116215E0
8.168980875E0,1.057585778E1,2.810860060E0,5.322063181E0,1.216856847E1
8.179021875E0,1.067787883E1,2.517027533E0,8.242441006E0,1.372189337E1
8.189062875E0,7.806423490E0,1.108471289E0,9.080287952E0,1.202582993E1
8.199103875E0,4.336258583E0,-5.870809168E-1,8.362106028E0,9.437829185E0
8.209145875E0,9.821617833E-1,-1.915319806E0,6.860577301E0,7.190313807E0
8.219186875E0,-2.447627808E0,-2.613151665E0,4.528793653E0,5.773163384E0
8.229227875E0,-5.091616226E0,-3.462910559E0,7.532909453E-1,6.203527431E0
8.239268875E0,-6.101243843E0,-3.870405357E0,-3.166868370E0,7.888869966E0
8.249310875E0,-4.895458513E0,-3.143930327E0,-6.758208343E0,8.917577696E0
8.259351875E0,-1.415261246E0,-1.615110891E0,-8.900249258E0,9.155653141E0
8.269392875E0,2.732989473E0,-9.114698231E-1,-9.294291952E0,9.730563785E0
8.279433875E0,7.277583765E0,-9.068037450E-1,-7.695829253E0,1.063067761E1
8.289474875E0,9.219314275E0,-5.061858577E-1,-5.715597752E0,1.085909929E1
8.299516875E0,7.119034173E0,3.519690531E-1,-3.778321066E0,8.067232478E0
8.309557875E0,5.189331386E0,8.892275995E-1,-9.868263996E-1,5.356651221E0
8.319598875E0,3.916972290E0,8.046996653E-1,1.519070958E0,4.277591618E0
8.329639875E0,3.026059815E0,6.968998128E-1,3.188963828E0,4.451089490E0
8.339680875E0,4.063036614E0,3.563649899E-1,5.969049407E0,7.229440736E0
8.349722875E0,4.489538663E0,-6.767029452E-1,7.329060897E0,8.621427835E0
8.359763875E0,2.308635398E0,-2.005443526E0,4.533176141E0,5.468206933E0
8.369804875E0,3.456870970E-1,-2.535326394E0,1.160481688E0,2.809643615E0
8.379845875E0,-7.006323829E-1,-2.489331611E0,-6.911093152E-1,2.676805875E0
8.389886875E0,-9.192749789E-1,-2.400051645E0,-2.082955386E0,3.308174349E0
8.399928875E0,-6.687542403E-1,-2.055251863E0,-3.197534677E0,3.859471526E0
8.409969875E0,1.067292273E-1,-1.335085394E0,-3.528963046E0,3.774576045E0
8.420010875E0,1.156921318E0,-8.262829077E-1,-2.999070822E0,3.318981195E0
8.430051875E0,1.824548800E0,-6.730414188E-1,-1.740855848E0,2.610084703E0
8.440093875E0,1.948932233E0,-5.268516719E-1,-4.084987646E-1,2.059801149E0
8.450134875E0,1.823435198E0,-3.628600770E-1,4.743658948E-1,1.918751250E0
8.460174250E0,1.755992828E0,-1.794826233E-1,7.363375282E-1,1.912568372E0
8.470215250E0,1.776246998E0,-1.215957731E-1,5.481355369E-1,1.862871841E0
8.480256250E0,1.705799744E0,-2.604811782E-1,4.943937778E-2,1.726281397E0
8.490298250E0,1.511305271E0,-3.176049668E-1,-5.557205451E-1,1.641262277E0
8.500339250E0,1.237093369E0,-2.925303519E-1,-1.025083562E0,1.633024899E0
8.510380250E0,7.738971180E-1,-3.023694617E-1,-1.334395423E0,1.571927220E0
8.520421250E0,6.354926464E-1,-1.271213919E-1,-1.432849086E0,1.572598886E0
8.530462250E0,8.302984831E-1,1.618088293E-1,-1.268375680E0,1.524583397E0
8.540504250E0,1.235383936E0,3.826482242E-1,-9.807441258E-1,1.623099557E0
8.550545250E0,1.463670929E0,3.866044503E-1,-7.625909418E-1,1.695093075E0
8.560586250E0,1.566162387E0,3.708052737E-1,-6.958344501E-1,1.753438552E0
8.570627250E0,1.703450625E0,4.364572263E-1,-7.897448266E-1,1.927676278E0
8.580668250E0,1.927879626E0,4.931997764E-1,-9.768779469E-1,2.216812214E0
8.590710250E0,1.767675272E0,3.639956063E-1,-9.826479793E-1,2.054936914E0
8.600751250E0,1.484030057E0,2.199254751E-1,-8.200901216E-1,1.709754436E0
8.610792250E0,1.169403662E0,6.886148930E-2,-6.270770413E-1,1.328710821E0
8.620833250E0,8.563551378E-1,-1.331323296E-1,-4.216076374E-1,9.637537752E-1
8.630875250E0,6.655683848E-1,-2.964819002E-1,-1.289053774E-1,7.399320160E-1
8.640916250E0,6.991954297E-1,-4.113446045E-1,2.280355632E-2,8.115409014E-1
8.650957250E0,8.374803257E-1,-5.313423336E-1,-2.735561371E-2,9.921926733E-1
8.660998250E0,9.250704467E-1,-5.655122924E-1,-1.588934076E-1,1.095813214E0
8.671039250E0,9.848164192E-1,-5.422965074E-1,-3.242514968E-1,1.170080303E0
8.681081250E0,1.080539140E0,-4.765790659E-1,-3.270850575E-1,1.225429343E0
8.691122250E0,1.119364652E0,-2.584627193E-1,-5.422029519E-1,1.270340207E0
8.701163250E0,9.272438568E-1,-2.053477818E-1,-2.441592604E-1,9.805929971E-1
8.711204250E0,8.026122093E-1,-3.034564590E-1,6.003394783E-2,8.601605989E-1
8.721245250E0,7.751224020E-1,-4.176122350E-1,2.691198546E-1,9.206737821E-1
8.731287250E0,7.541735825E-1,-4.237295920E-1,2.124503946E-1,8.907635656E-1
8.741328250E0,8.628104639E-1,-3.188439918E-1,7.425203741E-2,9.228308365E-1
8.751369250E0,1.056843006E0,-2.520816529E-1,-1.570035875E-2,1.086604252E0
8.761410250E0,1.162686673E0,-2.408549988E-1,-1.387368858E-2,1.187452698E0
8.771451250E0,1.213898926E0,-2.157341909E-1,-2.679451489E-1,1.261699825E0
8.781493250E0,1.301201364E0,-1.619573486E-1,-6.227319753E-1,1.451602661E0
8.791534250E0,1.355641573E0,-5.121166885E-2,-8.695721841E-1,1.611379066E0
8.801575250E0,1.281201256E0,1.724823368E-1,-8.754702705E-1,1.561305546E0
8.811616250E0,1.042781622E0,2.763721561E-1,-6.474551725E-1,1.258162661E0
8.821658250E0,1.041816247E0,1.062994570E-1,-3.888831103E-1,1.117099253E0
8.831699250E0,9.038871539E-1,-1.704352266E-1,-3.013578933E-1,9.679239295E-1
8.841740250E0,7.164242506E-1,-2.788244784E-1,-2.965269238E-1,8.239751289E-1
8.851781250E0,7.099396884E-1,-2.328103995E-1,-2.708874679E-1,7.947295537E-1
8.861822250E0,8.738429904E-1,-2.048297185E-1,-2.529505491E-1,9.324916974E-1
8.871864250E0,1.071875028E0,-1.894363385E-1,-2.395323586E-1,1.114530374E0
8.881905250E0,1.196145610E0,-2.660348636E-1,-3.070121509E-1,1.263247929E0
8.891946250E0,1.161668965E0,-3.984485704E-1,-2.248535085E-1,1.248517180E0
8.901987250E0,1.011899553E0,-3.806543237E-1,-2.308223462E-1,1.105494177E0
8.912028250E0,8.064035439E-1,-2.391961437E-1,-3.734037763E-1,9.202890041E-1
8.922070250E0,7.515715715E-1,-1.956753176E-1,-5.125476283E-1,9.305126159E-1
8.932111250E0,7.516817915E-1,-1.226956344E-1,-4.830121726E-1,9.018760964E-1
8.942152250E0,7.034624353E-1,-1.316886520E-1,-3.081354010E-1,7.791974874E-1
8.952193250E0,8.244620848E-1,-1.956314635E-1,-2.052828777E-1,8.718660784E-1
8.962234250E0,9.658740717E-1,-3.087610531E-1,-1.075297111E-1,1.019710130E0
8.972276250E0,1.093759402E0,-4.345101035E-1,-8.946239948E-2,1.180301733E0
8.982317250E0,1.260386630E0,-6.603307414E-1,-9.593819082E-2,1.426118957E0
8.992358250E0,1.279157361E0,-7.685317129E-1,-8.674695253E-2,1.494794161E0
9.002399250E0,1.321162004E0,-7.585201102E-1,-1.099393487E-1,1.527386153E0
9.012440250E0,1.384334153E0,-7.159734303E-1,-1.461570024E-1,1.565362855E0
9.022482250E0,1.343014511E0,-6.308859175E-1,-1.658252817E-1,1.493051587E0
9.032523250E0,1.213423840E0,-5.080189598E-1,-1.485771650E-1,1.323841325E0
9.042564250E0,9.766741714E-1,-3.468930852E-1,-1.341181701E-1,1.045090873E0
9.052605250E0,8.230973446E-1,-1.832768816E-1,-1.576502895E-1,8.578655302E-1
9.062646250E0,8.521951362E-1,-5.213728309E-2,-1.667883182E-1,8.699271174E-1
9.072688250E0,9.290170249E-1,-9.569026887E-2,-1.282241768E-1,9.426933222E-1
9.082729250E0,9.547728404E-1,-1.882850218E-1,-1.202339566E-1,9.805603656E-1
9.092770250E0,9.304952011E-1,-2.640468103E-1,-2.329998493E-1,9.949024912E-1
9.102811250E0,9.592924458E-1,-2.259504461E-1,-3.451535386E-1,1.044234919E0
9.112853250E0,8.455883673E-1,-2.474483192E-1,-2.944377136E-1,9.289477514E-1
9.122894250E0,8.733629340E-1,-2.431763434E-1,-1.939340168E-1,9.270965167E-1
9.132935250E0,8.913018993E-1,-2.577218771E-1,-6.117649376E-2,9.298291267E-1
9.142976250E0,8.985863605E-1,-3.693434697E-1,1.168916881E-2,9.716010923E-1
9.153017250E0,1.022449976E0,-4.041186154E-1,-9.675972462E-3,1.099458700E0
9.163059250E0,1.021365318E0,-3.905407959E-1,-1.179365855E-1,1.099826470E0
9.173100250E0,1.006290319E0,-4.351053500E-1,-1.378709131E-1,1.104963918E0
9.183141250E0,1.005162975E0,-4.493018049E-1,6.439538598E-2,1.102892327E0
9.193182250E0,6.897206014E-1,-4.892213309E-1,2.327946121E-1,8.770663316E-1
9.203223250E0,4.137937108E-1,-5.318820316E-1,-3.036500019E-1,7.391394011E-1
9.213265250E0,1.296743447E0,-3.055246192E-1,-2.847453105E0,3.143704510E0
9.223306250E0,1.242176938E0,-1.076946026E-1,-1.263576286E0,1.775169486E0
9.233347250E0,1.225387243E0,-1.318716699E-1,1.676741713E-1,1.243816169E0
9.243388250E0,1.604036557E0,-2.409052849E-2,1.794668359E-1,1.614224883E0
9.253429250E0,1.396541677E0,-1.314781523E-1,1.417949796E-1,1.409865588E0
9.263471250E0,1.446720143E0,-1.712035507E-1,-2.099068558E-1,1.471859612E0
9.273512250E0,1.655761611E0,-2.602981603E-1,-7.489528960E-1,1.835819187E0