"Time (s)","Linear Acceleration x (m/s^2)","Linear Acceleration y (m/s^2)","Linear Acceleration z (m/s^2)","Absolute acceleration (m/s^2)"
5.194999976E-3,-3.778029290E-1,1.049778693E0,4.872777164E-1,1.217460443E0
1.523600001E-2,4.710899922E-1,6.004792267E-1,2.710710704E-1,8.099262977E-1
2.527799999E-2,1.043851955E0,1.550991493E-1,5.735791111E-1,1.201114335E0
3.531899996E-2,1.490563151E0,-1.836405784E-1,2.634217429E-1,1.524760107E0
4.535999999E-2,1.960207419E0,-3.071805507E-1,-6.845452309E-1,2.098898566E0
5.540099996E-2,1.706443230E0,-7.842969757E-1,-9.891161692E-1,2.122597710E0
6.544199999E-2,1.333358712E0,-8.097627693E-1,-8.400343895E-1,1.771784121E0
7.548399997E-2,1.812575457E0,-2.311454049E-1,-8.805450690E-1,2.028353421E0
8.552500000E-2,9.642251569E-1,-1.373005173E0,1.627981782E-2,1.677837415E0
9.556599997E-2,3.994376269E-1,-1.246747122E0,9.920976645E-1,1.642615774E0
1.056070000E-1,-2.386397227E0,2.753778371E0,-2.792150724E-1,3.654606422E0
1.156490000E-1,-3.907719071E0,2.375523452E0,-1.319080980E0,4.759554039E0
1.256900000E-1,-2.590613280E0,-1.719097189E0,-2.896590182E0,4.249330182E0
1.357310000E-1,-5.569566464E-1,-1.739941051E0,-2.061428862E0,2.754466286E0
1.457720000E-1,6.044184959E-1,-3.924478653E-1,-8.188978744E-1,1.090839481E0
1.558140000E-1,8.965912905E-1,1.351436841E0,-1.881984830E-2,1.621916047E0
1.658550000E-1,-3.712338746E-1,1.528970295E0,2.625323814E-1,1.595145135E0
1.758960000E-1,-1.201946633E0,5.724272096E-1,-3.186358309E-1,1.368896421E0
1.859370000E-1,-9.113522941E-1,1.386351442E-1,-1.046398417E0,1.394536609E0
1.959790000E-1,-3.206028342E-2,1.070362061E-2,-1.176877280E0,1.177362545E0
2.060200000E-1,4.224794573E-1,-5.680950075E-2,-7.238379353E-1,8.400342659E-1
2.160610000E-1,6.148358953E-1,-8.245714277E-2,-4.067557096E-1,7.418035898E-1
2.261020000E-1,4.234652978E-1,-3.443153402E-1,-5.150017047E-1,7.504016710E-1
2.361430000E-1,-3.150783849E-1,-2.619102084E0,-7.022973776E-1,2.729870276E0
2.461850000E-1,1.058125593E0,-1.701992914E0,-5.716974771E-1,2.084045982E0
2.562260000E-1,-1.588016063E-1,-1.518071669E0,-4.755025935E-1,1.598706433E0
2.662670000E-1,-9.728503847E-1,-2.392413135E0,2.927133697E-1,2.599184410E0
2.763080000E-1,9.791946137E-1,-1.123867885E0,1.089942632E0,1.846584971E0
2.863500000E-1,2.118776014E0,2.667786294E-1,1.178741373E0,2.439224028E0
2.963910000E-1,1.511262879E0,8.246763852E-1,1.066325144E0,2.025106403E0
3.064320000E-1,6.852439731E-1,9.895248896E-1,9.579721445E-1,1.538320331E0
3.164730000E-1,1.865703258E-1,1.128737739E0,7.180994779E-1,1.350749507E0
3.265150000E-1,8.763429675E-1,2.597760040E0,-3.124921614E-1,2.759345134E0
3.365560000E-1,1.846750678E0,2.425580004E0,-7.004502422E-1,3.128027647E0
3.465970000E-1,2.379766192E0,6.620223409E-1,-3.092679482E0,3.958058500E0
3.566380000E-1,4.187903027E0,2.148879234E0,-4.290134284E0,6.368788417E0
3.666800000E-1,7.797034031E0,5.253740805E0,-2.336273725E0,9.687812294E0
3.767210000E-1,9.993236536E0,7.471254072E0,4.673767179E-1,1.248610647E1
3.867620000E-1,1.093064344E1,4.723252458E0,4.092418288E0,1.259110667E1
3.968030833E-1,1.276524711E1,9.850099620E-1,8.669117594E0,1.546206255E1
4.068440833E-1,1.100942414E1,-1.311366164E0,1.635247064E1,1.975678105E1
4.168860833E-1,8.735098161E0,-1.520460842E0,2.706348915E1,2.847887263E1
4.269270833E-1,7.577058270E0,-6.120315707E0,3.344945088E1,3.483871181E1
4.369680833E-1,4.779614354E0,-1.176719172E1,3.240286243E1,3.480311779E1
4.470090833E-1,9.184268403E-1,-1.461653757E1,2.698432019E1,3.070244639E1
4.570510833E-1,-2.797198918E0,-1.599977946E1,2.016717776E1,2.589463889E1
4.670920833E-1,-7.021024899E0,-1.776400487E1,1.258031137E1,2.287179254E1
4.771330833E-1,-1.318448312E1,-1.784583549E1,-9.009807953E-1,2.220621998E1
4.871740833E-1,-2.233814135E1,-1.226486461E1,-2.428048581E1,3.519888427E1
4.972160833E-1,-2.184028134E1,-6.049165033E0,-3.935745887E1,4.541585467E1
5.072570833E-1,-1.914766426E1,-8.008824275E0,-3.272878155E1,3.875496684E1
5.172980833E-1,-2.074783434E1,-1.321935006E1,-1.905787091E1,3.111954835E1
5.273390833E-1,-1.859517255E1,-1.500693511E1,-1.025759500E1,2.600397659E1
5.373810833E-1,-1.304186953E1,-1.475404654E1,-3.694320551E0,2.003547490E1
5.474220833E-1,-6.739565080E0,-1.294067644E1,4.392368757E0,1.523731432E1
5.574630833E-1,-1.841578523E0,-9.473661139E0,1.917990230E1,2.147115085E1
5.675040833E-1,4.067679888E0,-3.341751573E0,2.555065308E1,2.608733785E1
5.775460833E-1,9.043922364E0,-2.975058646E0,2.371375964E1,2.555358883E1
5.875870833E-1,2.255963972E0,-7.077449945E0,2.341114986E1,2.456138450E1
5.976280833E-1,-8.217941757E0,-9.550612251E0,2.416229020E1,2.725004640E1
6.076690833E-1,-1.370574719E1,-1.215259807E1,2.546602984E1,3.136960028E1
6.177100833E-1,-1.341936226E1,-1.410709539E1,2.469525689E1,3.144749810E1
6.277520833E-1,-1.200687376E1,-1.466768199E1,2.138762966E1,2.857860415E1
6.377930833E-1,-1.086336771E1,-1.545750283E1,1.281724640E1,2.283043927E1
6.478340833E-1,-1.312159631E1,-1.401098120E1,-1.396135004E0,1.924663807E1
6.578750833E-1,-1.709120787E1,-1.071704348E1,-1.783047368E1,2.692378501E1
6.679170833E-1,-1.890386577E1,-8.177233441E0,-2.969341707E1,3.613754702E1
6.779580833E-1,-2.228419260E1,-8.794891788E0,-3.153234066E1,3.960080641E1
6.879990833E-1,-2.524269427E1,-1.062741268E1,-2.506488044E1,3.712659081E1
6.980400833E-1,-2.219809819E1,-1.176978788E1,-1.647785132E1,3.004668125E1
7.080820833E-1,-1.751995613E1,-1.383494259E1,-9.240082415E0,2.416057992E1
7.181230833E-1,-1.120032989E1,-1.240624795E1,-2.914963887E0,1.696641955E1
7.281640833E-1,-5.636891305E0,-9.785415967E0,5.409359187E0,1.252158441E1
7.382050833E-1,1.401629924E0,-7.719663089E0,1.067493885E1,1.324809738E1
7.482470833E-1,6.414187410E0,-5.622163339E0,1.940389860E1,2.119579679E1
7.582880833E-1,7.169067628E0,-4.246934470E0,3.090476836E1,3.200838469E1
7.683290833E-1,4.408200093E0,-5.738999478E0,4.052822113E1,4.116922456E1
7.783700833E-1,-2.178277280E0,-9.463665909E0,4.160108229E1,4.271950271E1
7.884110833E-1,-6.935785943E0,-1.287256340E1,3.626284337E1,3.909989545E1
7.984530833E-1,-9.578054988E0,-1.495784656E1,3.057447318E1,3.535922399E1
8.084940833E-1,-1.102269498E1,-1.724666311E1,2.249614247E1,3.041420095E1
8.185350833E-1,-1.232406066E1,-1.813432541E1,8.217917783E0,2.341517461E1
8.285760833E-1,-1.454923144E1,-1.589167497E1,-7.695387788E0,2.287890867E1
8.386180833E-1,-1.620247553E1,-9.450358230E0,-2.045455672E1,2.775280841E1
8.486590833E-1,-2.038147822E1,-5.010142878E0,-3.083309085E1,3.729860155E1
8.587000833E-1,-2.329324192E1,-7.969882404E0,-3.687041118E1,4.433420085E1
8.687410833E-1,-2.506811746E1,-1.057165012E1,-3.195190411E1,4.196539617E1
8.787830833E-1,-2.172072917E1,-1.196337282E1,-2.150699940E1,3.282473744E1
8.888240833E-1,-1.767175218E1,-1.429640368E1,-1.345314397E1,2.641335015E1
8.988650833E-1,-1.192516010E1,-1.495661748E1,-8.777940710E0,2.104666465E1
9.089060833E-1,-9.473568753E0,-1.507809338E1,-2.642118772E0,1.800217199E1
9.189480833E-1,-1.020183946E1,-1.381781960E1,3.901691469E0,1.761342849E1
9.289890833E-1,-6.062974402E0,-1.126731208E1,1.428081851E1,1.917429940E1
9.390300833E-1,4.254097894E-1,-8.337606779E0,3.351567645E1,3.453979195E1
9.490710833E-1,6.331534678E0,-7.456784552E0,5.210785054E1,5.301811064E1
9.591130833E-1,4.313330188E0,-1.020696045E1,5.428010051E1,5.539960443E1
9.691540833E-1,-3.485029114E0,-1.579977545E1,4.201450850E1,4.502218628E1
9.791950833E-1,-1.119349449E1,-2.033548870E1,3.159581102E1,3.920614357E1
9.892360833E-1,-1.666025287E1,-2.263040390E1,2.539065455E1,3.787326953E1
9.992780833E-1,-1.755191467E1,-2.413889666E1,1.538856065E1,3.357921737E1
1.009319083E0,-1.838062768E1,-2.050244308E1,2.997130716E-1,2.753702006E1
1.019360083E0,-1.525427116E1,-1.381606076E1,-1.323074044E1,2.446689224E1
1.029401083E0,-1.532918218E1,-6.273557196E0,-2.511304278E1,3.008332202E1
1.039442083E0,-1.758694768E1,-6.497689158E0,-3.377032737E1,3.862584243E1
1.049484083E0,-2.278978496E1,-9.995302942E0,-3.421625474E1,4.230877531E1
1.059525083E0,-2.528901123E1,-1.083693713E1,-2.749961192E1,3.889989654E1
1.069566083E0,-2.261962163E1,-1.321696440E1,-1.958665216E1,3.271043218E1
1.079607083E0,-1.681346863E1,-1.417984762E1,-1.483350084E1,2.652910766E1
1.089649083E0,-1.136187676E1,-1.587768141E1,-1.315333266E1,2.354152014E1
1.099690083E0,-1.098276084E1,-1.894709307E1,-9.074792154E0,2.370580570E1
1.109731083E0,-1.658303337E1,-1.896891838E1,2.108808850E0,2.528366934E1
1.119772083E0,-1.660662923E1,-1.407656123E1,1.525184106E1,2.658097752E1
1.129814083E0,-1.040314156E1,-1.044770202E1,3.015644404E1,3.356770693E1
1.139855083E0,-1.320133041E0,-9.380639539E0,4.200101781E1,4.305606399E1
1.149896083E0,3.513894771E0,-9.238094362E0,4.399817408E1,4.509466893E1
1.159937083E0,-1.560367796E0,-1.263701884E1,3.743640060E1,3.954254776E1
1.169979083E0,-9.084547064E0,-1.807695955E1,2.957731709E1,3.583466406E1
1.180020083E0,-1.453311534E1,-2.164056618E1,2.417431441E1,3.555169508E1
1.190061083E0,-1.651864267E1,-2.316047271E1,1.858097901E1,3.397831415E1
1.200102083E0,-1.386406289E1,-2.275113720E1,8.959619547E0,2.810874004E1
1.210144083E0,-1.099511835E1,-1.770244773E1,-1.041837004E0,2.086515534E1
1.220185083E0,-1.254594729E1,-1.253725832E1,-1.375693372E1,2.244631072E1
1.230226083E0,-1.478586241E1,-9.923875694E0,-3.029388869E1,3.514007296E1
1.240267083E0,-1.606036012E1,-8.752954388E0,-3.948351080E1,4.351433101E1
1.250309083E0,-2.376446669E1,-9.930316987E0,-3.785529279E1,4.578628905E1
1.260350083E0,-2.354858515E1,-1.250920338E1,-2.722649081E1,3.810902562E1
1.270391083E0,-1.833913233E1,-1.360094637E1,-1.952913544E1,3.004491051E1
1.280432083E0,-1.167177568E1,-1.575885663E1,-1.579990876E1,2.518350704E1
1.290473083E0,-6.878501941E0,-1.784220086E1,-1.269177217E1,2.295079522E1
1.300515083E0,-7.894958521E0,-1.787550075E1,-9.311787990E0,2.164655383E1
1.310556083E0,-1.164152336E1,-1.744001299E1,-5.189147784E0,2.160107345E1
1.320597083E0,-1.783827621E1,-1.584241334E1,1.154756562E1,2.650532834E1
1.330638083E0,-1.221281387E1,-8.848156414E0,2.413777867E1,2.846181747E1
1.340680083E0,6.127882004E-3,-6.129445549E0,3.592336807E1,3.644253714E1
1.350721083E0,4.330092109E0,-7.386173576E0,4.419551527E1,4.501720590E1
1.360762083E0,6.664159387E-1,-1.126015743E1,3.964949688E1,4.122278325E1
1.370803083E0,-9.092196976E0,-1.703969390E1,3.162726436E1,3.705810390E1
1.380845083E0,-1.625632137E1,-2.345493381E1,2.811925539E1,4.006362974E1
1.390886083E0,-1.928291153E1,-2.845005811E1,2.574752649E1,4.294381916E1
1.400926833E0,-2.124071720E1,-3.216099586E1,2.101027142E1,4.389680202E1
1.410967833E0,-2.023932773E1,-3.325164893E1,1.265797409E1,4.093319987E1
1.421009833E0,-1.942218402E1,-2.759055016E1,2.612633602E0,3.384206767E1
1.431050833E0,-2.257912849E1,-1.751993508E1,-9.287783416E0,3.005042578E1
1.441091833E0,-2.690960213E1,-1.007067121E1,-3.022684919E1,4.170380699E1
1.451132833E0,-2.479158392E1,-8.865751855E0,-4.702680725E1,5.389568433E1
1.461174833E0,-2.699237064E1,-9.062432309E0,-4.539895645E1,5.358900072E1
1.471215833E0,-2.879773589E1,-1.469672394E1,-3.136792397E1,4.504719682E1
1.481256833E0,-2.410179958E1,-1.898489882E1,-1.867580214E1,3.591808336E1
1.491297833E0,-1.483880544E1,-2.073038391E1,-1.281715518E1,2.853451298E1
1.501339833E0,-6.343015101E0,-2.345025604E1,-9.846771970E0,2.621273101E1
1.511380833E0,-5.038575549E0,-2.447950866E1,-7.069915223E0,2.597339580E1
1.521421833E0,-7.218826264E0,-2.464848852E1,-3.066892092E0,2.586629594E1
1.531462833E0,-1.693779681E1,-2.244112251E1,1.046588452E1,3.000046131E1
1.541503833E0,-1.879924856E1,-1.368732261E1,1.834566718E1,2.961955521E1
1.551545833E0,-7.300224184E0,-9.884978846E0,2.026416202E1,2.369899454E1
1.561586833E0,-2.292248869E0,-8.143587978E0,3.011255250E1,3.127839907E1
1.571627833E0,2.417895447E0,-7.718171464E0,3.594143128E1,3.684023442E1
1.581668833E0,-1.751700241E0,-1.307276972E1,3.233952305E1,3.492578579E1
1.591710833E0,-1.322566857E1,-1.986219869E1,2.722218960E1,3.620045376E1
1.601751833E0,-2.065168039E1,-2.574256104E1,2.734848478E1,4.286153254E1
1.611792833E0,-2.142371166E1,-3.191566307E1,2.728913087E1,4.714108223E1
1.621833833E0,-2.079717081E1,-3.629896045E1,2.336783602E1,4.791860395E1
1.631875833E0,-1.900149439E1,-3.801404938E1,1.581615818E1,4.534617513E1
1.641916833E0,-1.684280996E1,-3.456514407E1,6.962509473E0,3.907564421E1
1.651957833E0,-2.180072609E1,-2.357523676E1,-5.210397150E0,3.253016577E1
1.661998833E0,-2.891746582E1,-1.280552624E1,-2.779487292E1,4.210411254E1
1.672040833E0,-2.764821774E1,-8.949219689E0,-5.045870652E1,5.822880336E1
1.682081833E0,-2.743940197E1,-9.313945028E0,-5.360195915E1,6.093308114E1
1.692122833E0,-2.817969923E1,-1.490386039E1,-4.024715717E1,5.134251809E1
1.702163833E0,-1.995787551E1,-1.897592101E1,-2.725823418E1,3.874808000E1
1.712205833E0,-6.324048488E0,-2.496657471E1,-2.021562311E1,3.274133259E1
1.722246833E0,-1.160920814E-1,-3.169658427E1,-1.490861651E1,3.502790000E1
1.732287833E0,-3.713457903E0,-3.485073845E1,-1.028043072E1,3.652466285E1
1.742328833E0,-1.193784505E1,-3.224060220E1,-1.692696426E0,3.442141478E1
1.752370833E0,-1.743838864E1,-1.990084411E1,3.239990842E1,4.183174703E1
1.762411833E0,8.329265141E-1,-9.167134892E0,5.073082658E1,5.155915917E1
1.772452833E0,1.449874541E1,-9.306812010E0,5.271876763E1,5.546258945E1
1.782493833E0,9.653505120E0,-7.917780204E0,4.493628264E1,4.663851308E1
1.792535833E0,6.131976809E0,-1.114388321E1,3.091049629E1,3.342523079E1
1.802576833E0,-1.260891244E0,-1.697955529E1,1.979050013E1,2.610668573E1
1.812617833E0,-1.223224885E1,-1.994221199E1,1.219116631E1,2.638075561E1
1.822658833E0,-2.475228361E1,-1.831440796E1,1.356661328E0,3.082099306E1
1.832699833E0,-3.248865512E1,-9.504026315E0,-1.654412015E1,3.767687805E1
1.842741833E0,-2.244848064E1,-2.578168944E0,-3.015816780E1,3.768416542E1
1.852782833E0,-1.190322719E1,-2.303621703E0,-3.211042681E1,3.432306805E1
1.862823833E0,-8.613549750E0,-5.010661526E0,-2.427364223E1,2.623946790E1
1.872864833E0,-1.146452814E1,-8.784794816E0,-1.351428830E1,1.977988912E1
1.882906833E0,-1.262392576E1,-1.075900778E1,-3.580762360E0,1.696884230E1
1.892947833E0,-8.040036128E0,-8.639448822E0,7.891626778E0,1.419718388E1
1.902988833E0,4.392530724E0,-3.854624891E0,3.140631679E1,3.194540959E1
1.913029833E0,1.937128985E1,-3.877890378E0,5.369327863E1,5.721235071E1
1.923071833E0,1.142825202E1,-4.898138292E0,5.976244523E1,6.104217036E1
1.933112833E0,-4.015045592E0,-8.607102025E0,5.024238293E1,5.113218007E1
1.943153833E0,-1.170784833E1,-1.461526521E1,3.811290474E1,4.246496436E1
1.953194833E0,-1.517521797E1,-1.609390677E1,2.967671508E1,3.701362578E1
1.963236833E0,-1.448456123E1,-1.849364383E1,1.738778332E1,2.922588553E1
1.973277833E0,-2.067210355E1,-1.305149638E1,-6.789205602E0,2.537263754E1
1.983318833E0,-1.648038784E1,-5.980040419E0,-2.943965726E1,3.426452227E1
1.993359833E0,-1.795866745E0,-1.331893984E0,-3.607413033E1,3.614335289E1
2.003401833E0,-4.822461873E-2,3.140884513E-1,-2.896567027E1,2.896741326E1
2.013442833E0,1.598258046E0,2.461975998E0,-2.177625901E1,2.197319301E1
2.023483833E0,2.264269650E0,3.676313465E0,-1.679684266E1,1.734289829E1
2.033524833E0,9.482242513E-1,1.579569175E0,-1.263933902E1,1.277290330E1
2.043566833E0,-3.239572064E0,-2.434910406E0,-7.584098318E0,8.598962910E0
2.053607833E0,-1.135944198E1,-5.677287964E0,9.441527181E0,1.582437854E1
2.063648833E0,-1.689088109E1,-4.767758832E0,2.438923701E1,3.004776648E1
2.073689833E0,-1.822389657E1,-7.141137818E0,3.002702645E1,3.584311053E1
2.083730833E0,-1.396378716E1,-1.168567919E1,3.167587811E1,3.653633402E1
2.093772833E0,-8.770961473E0,-1.570642582E1,2.847076895E1,3.367797889E1
2.103813833E0,-7.431488328E0,-1.773583533E1,2.120706998E1,2.862737660E1
2.113854833E0,-7.196172981E0,-1.711532179E1,2.841372001E0,1.878277243E1
2.123895833E0,-4.526321450E0,-1.005099065E1,-2.479622193E1,2.713600230E1
2.133937833E0,1.276226854E1,-5.493723984E0,-4.008181194E1,4.242178862E1
2.143978833E0,1.463262326E1,-8.987866277E-1,-3.488432486E1,3.783963004E1
2.154019833E0,7.324279629E0,1.581042674E0,-2.377677859E1,2.492949996E1
2.164060833E0,3.790290024E0,2.536515718E0,-1.644038002E1,1.706125159E1
2.174102833E0,1.432511117E0,9.118206561E-2,-1.215312198E1,1.223759683E1
2.184143833E0,-3.269179733E0,-5.006860251E0,-8.304526742E0,1.023334501E1
2.194184833E0,-1.134709383E1,-7.809722489E0,-8.620731300E-1,1.380186487E1
2.204225833E0,-2.026288265E1,-7.426424639E0,1.019319143E1,2.386707665E1
2.214267833E0,-2.097297086E1,-8.949706178E0,1.957102255E1,3.004975326E1
2.224308833E0,-1.184386509E1,-1.099497567E1,2.533752441E1,3.005256684E1
2.234349833E0,-1.972630998E0,-1.189320857E1,2.601084766E1,2.866886603E1
2.244390833E0,3.160275342E0,-1.245834430E1,2.122376028E1,2.481220835E1
2.254432833E0,5.133184083E0,-1.205856783E1,8.541469953E0,1.564338026E1
2.264473833E0,6.902743328E0,-8.420263020E0,-1.520022768E1,1.869747620E1
2.274514833E0,1.510750020E1,-6.298583863E0,-3.447461514E1,3.816291144E1
2.284555833E0,1.842502208E1,-3.517511274E0,-3.544669603E1,4.010389736E1
2.294597833E0,1.098846655E1,-5.448692822E-1,-2.610246418E1,2.832634667E1
2.304638833E0,5.715516475E0,4.027544600E-1,-1.960737703E1,2.042739763E1
2.314679833E0,2.300312179E0,-1.779817600E0,-1.622491363E1,1.648353752E1
2.324720833E0,-2.247428792E0,-5.783189811E0,-1.373104224E1,1.506777162E1
2.334761833E0,-8.940265263E0,-7.093674214E0,-7.357890009E0,1.357892125E1
2.344803833E0,-1.529034029E1,-3.804842282E0,4.052262242E0,1.626936263E1
2.354844833E0,-1.230956775E1,-3.761028510E0,1.498206105E1,1.975178338E1
2.364885833E0,-2.882068037E0,-5.844656911E0,2.217716750E1,2.311478074E1
2.374926833E0,4.108597534E0,-5.929135728E0,2.380633042E1,2.487522044E1
2.384968833E0,6.123979572E0,-4.354101069E0,2.030987087E1,2.165530367E1
2.395009833E0,4.715941684E0,-2.580924736E0,1.075539888E1,1.202413753E1
2.405051000E0,1.755386764E-1,-4.109100979E0,-8.942814065E0,9.843243778E0
2.415092000E0,7.993079478E0,-7.819228892E0,-2.762980836E1,2.980664305E1
2.425134000E0,1.368138652E1,-5.325265117E0,-3.022230006E1,3.359949712E1
2.435175000E0,5.789881949E0,-1.854688858E0,-2.276834907E1,2.356608417E1
2.445216000E0,4.278543933E0,-7.606169218E-1,-1.728074303E1,1.781876976E1
2.455257000E0,5.062325769E0,-1.431122988E0,-1.387424056E1,1.483812004E1
2.465299000E0,4.284275081E0,-1.859016382E0,-1.139795642E1,1.231764448E1
2.475340000E0,7.769745076E-1,-4.452506785E0,-7.802460247E0,9.017033435E0
2.485381000E0,-6.213301638E0,-3.882547100E0,1.103457302E-1,7.327446036E0
2.495422000E0,-1.095475268E1,-2.484100692E0,8.874977592E0,1.431581607E1
2.505464000E0,-5.841323998E0,-4.792918816E0,1.606093666E1,1.774955839E1
2.515505000E0,1.897922001E0,-5.509207996E0,1.914184160E1,2.000908745E1
2.525546000E0,6.705896813E0,-3.932066000E0,1.760669138E1,1.924644842E1
2.535587000E0,7.015586404E0,-1.265072004E0,1.055543346E1,1.273719103E1
2.545629000E0,3.097175991E0,-3.039413102E0,-4.531277550E0,6.273994530E0
2.555670000E0,5.007084199E0,-8.210492404E0,-2.126707177E1,2.334033889E1
2.565711000E0,6.727546129E0,-6.604482704E0,-2.569516585E1,2.737006789E1
2.575752000E0,-2.564822674E-1,-4.819276895E0,-2.094602689E1,2.149481927E1
2.585794000E0,8.201778299E-1,-4.352734575E0,-1.722842565E1,1.778869417E1
2.595835000E0,4.013245819E0,-3.900923730E0,-1.453871814E1,1.557875711E1
2.605876000E0,4.396049579E0,-4.127833704E0,-1.162099963E1,1.309243657E1
2.615917000E0,1.482576439E0,-5.564156036E0,-6.282145586E0,8.521925748E0
2.625958000E0,-3.827083628E0,-3.444022298E0,4.701836153E0,6.972454511E0
2.636000000E0,-4.789041235E0,-2.882353966E0,1.662603614E1,1.754046630E1
2.646041000E0,1.185213363E0,-4.899293118E0,2.341606152E1,2.395244749E1
2.656082000E0,7.505375499E0,-5.197657236E0,2.572009604E1,2.729230005E1
2.666123000E0,9.167915495E0,-4.299070584E0,2.373708067E1,2.580662088E1
2.676165000E0,8.040586935E0,-3.354900207E0,1.793849047E1,1.994231265E1
2.686206000E0,4.188997334E0,-5.112585511E0,8.039657813E0,1.040780126E1
2.696247000E0,-4.382638990E0,-9.690102843E0,-6.523309318E0,1.247634490E1
2.706288000E0,-6.274105664E0,-1.001277208E1,-1.898152381E1,2.235885178E1
2.716330000E0,-7.256584074E0,-5.768338467E0,-2.188998267E1,2.377189691E1
2.726371000E0,-9.491724358E0,-6.783126837E0,-1.914025934E1,2.241546718E1
2.736412000E0,-3.858109247E0,-6.415163310E0,-1.421064374E1,1.606180945E1
2.746453000E0,2.834346571E0,-4.112532125E0,-1.041056167E1,1.154669803E1
2.756495000E0,7.096438193E0,-3.042703915E0,-7.590101069E0,1.082714720E1
2.766536000E0,8.055109665E0,-4.552101824E0,-3.032906905E0,9.736783197E0
2.776577000E0,4.982461574E0,-3.694072044E0,6.210731202E0,8.777486751E0
2.786618000E0,8.497445682E-1,-1.492984191E0,1.751573444E1,1.759977331E1
2.796660000E0,1.955682259E0,-2.524678030E0,2.386680232E1,2.407951298E1
2.806701000E0,5.366021964E0,-3.923309210E0,2.453590623E1,2.542040993E1
2.816742000E0,6.909239584E0,-4.430563354E0,2.019214070E1,2.179656003E1
2.826783000E0,6.867514438E0,-4.040836490E0,1.360039440E1,1.576267242E1
2.836825000E0,4.301854151E0,-4.687486501E0,5.071211783E0,8.136072012E0
2.846866000E0,-2.918147404E0,-7.768348761E0,-6.515947673E0,1.055084835E1
2.856907000E0,-8.428271951E0,-8.025591166E0,-1.747901743E1,2.099909360E1
2.866948000E0,-9.328246733E0,-5.724259817E0,-2.213625804E1,2.469407333E1
2.876989000E0,-7.005289457E0,-6.577041137E0,-2.073901440E1,2.285690856E1
2.887031000E0,3.393661107E-1,-6.229683782E0,-1.590824481E1,1.708790163E1
2.897072000E0,7.159445450E0,-4.756995277E0,-1.155063073E1,1.439804617E1
2.907113000E0,9.836428245E0,-6.256474555E0,-7.942481182E0,1.410609095E1
2.917154000E0,7.581654766E0,-7.060156220E0,-4.614774621E-1,1.037016183E1
2.927196000E0,1.573539234E0,-3.436979327E0,1.338792880E1,1.391134394E1
2.937237000E0,3.430592121E-1,-1.943434973E0,2.626093776E1,2.633498587E1
2.947278000E0,4.718032941E0,-4.631202958E0,3.071940227E1,3.142275531E1
2.957319000E0,7.486417072E0,-6.160338728E0,2.755300869E1,2.920897981E1
2.967361000E0,6.702159272E0,-5.866213841E0,2.088885983E1,2.270849772E1
2.977402000E0,5.314857658E0,-4.986718347E0,1.299726463E1,1.490113954E1
2.987443000E0,-1.478320251E0,-7.222783660E0,-1.297656198E0,7.485849729E0
2.997484000E0,-9.592925043E0,-9.636341788E0,-1.857105161E1,2.301667335E1
3.007526000E0,-8.754768194E0,-6.835627817E0,-2.651038933E1,2.874321687E1
3.017567000E0,-1.007218915E1,-7.336131350E0,-2.381739335E1,2.688003057E1
3.027608000E0,-7.090959352E0,-9.355049200E0,-1.822784110E1,2.168070205E1
3.037649000E0,-3.488508792E-1,-8.024363251E0,-1.246123517E1,1.482546742E1
3.047691000E0,3.961678054E0,-6.703900573E0,-8.086526754E0,1.122626790E1
3.057732000E0,6.160341067E0,-7.595382859E0,-3.886801827E0,1.052363394E1
3.067773000E0,5.358935723E0,-6.744871429E0,4.311944106E0,9.633501162E0
3.077814000E0,1.233181143E0,-4.538029915E0,1.587256159E1,1.655453601E1
3.087856000E0,-1.693783569E0,-5.826824657E0,2.374976913E1,2.451269716E1
3.097897000E0,-1.248904599E0,-7.439257523E0,2.561543321E1,2.670304728E1
3.107938000E0,-7.840205486E-1,-8.285802788E0,2.246557089E1,2.395769378E1
3.117979000E0,-1.303703096E0,-8.687411778E0,1.672017514E1,1.888743026E1
3.128020000E0,-2.687607186E0,-8.042670883E0,9.001592031E0,1.236674761E1
3.138062000E0,-7.306914568E0,-7.856077461E0,-5.181787308E0,1.191469149E1
3.148103000E0,-6.391458113E0,-9.121507899E0,-1.958260238E1,2.252844777E1
3.158144000E0,-2.343928900E0,-7.708555718E0,-2.464700566E1,2.593049791E1
3.168185000E0,-8.183947799E0,-1.016211699E1,-2.189287821E1,2.548614800E1
3.178227000E0,-9.594814278E0,-1.137318879E1,-1.795223025E1,2.331721371E1
3.188268000E0,-5.098912382E0,-9.420951998E0,-1.426867735E1,1.784232040E1
3.198309000E0,2.752297564E-1,-7.615221877E0,-1.061378633E1,1.306597933E1
3.208350000E0,5.670851349E0,-7.444359804E0,-4.867432224E0,1.054840957E1
3.218392000E0,6.428366908E0,-6.328680067E0,6.483772784E0,1.110924849E1
3.228433000E0,1.992945980E0,-3.405310807E0,1.942480123E1,1.982147518E1
3.238474000E0,-1.972915611E0,-4.381794067E0,2.565415581E1,2.610034915E1
3.248515000E0,-3.544085700E0,-5.303694153E0,2.683412861E1,2.758188125E1
3.258557000E0,-4.893049461E0,-5.208050662E0,2.408466022E1,2.512243186E1
3.268598000E0,-7.324917560E0,-5.099409980E0,1.779330878E1,1.990628636E1
3.278639000E0,-1.201939616E1,-5.364195294E0,5.727308555E0,1.435418192E1
3.288680000E0,-1.413377975E1,-5.131443951E0,-1.415533375E1,2.065112396E1
3.298722000E0,-6.984198550E0,-3.748858700E0,-2.451360261E1,2.576333992E1
3.308763000E0,-7.958155813E0,-5.701850363E0,-2.078017880E1,2.297083308E1
3.318804000E0,-1.245492485E1,-6.888111255E0,-1.438913935E1,2.023903557E1
3.328845000E0,-9.444159012E0,-5.261950881E0,-9.423320121E0,1.434152114E1
3.338887000E0,-2.937224822E0,-3.730176262E0,-3.146338211E0,5.695695632E0
3.348928000E0,6.330125499E0,-2.176852022E0,4.287134662E0,7.949131850E0
3.358969000E0,1.623995150E1,-1.246770803E0,1.491448595E1,2.208466331E1
3.369010000E0,1.542704702E1,-1.445244891E0,2.575523312E1,3.005685522E1
3.379051000E0,6.820129187E0,-1.719552103E0,3.184557132E1,3.261305620E1
3.389093000E0,2.297620121E0,-4.175401973E0,3.154613541E1,3.190410161E1
3.399134208E0,2.992546791E0,-3.960623801E0,2.966270047E1,3.007520036E1
3.409175208E0,6.539894945E0,-2.193885838E0,2.813621232E1,2.896946331E1
3.419216208E0,7.860926557E0,-5.303156794E0,2.469608017E1,2.645399808E1
3.429258208E0,3.395103908E-1,-1.478402638E1,1.548408194E1,2.141120026E1
3.439299208E0,-1.042972885E1,-1.503556073E1,3.376884568E0,1.860781233E1
3.449340208E0,-1.956065427E1,-8.457029727E0,-3.674452296E0,2.162503519E1
3.459381208E0,-2.186165408E1,-1.089593787E1,-9.176082886E0,2.609317686E1
3.469423208E0,-1.389827378E1,-1.131938622E1,-1.004586498E1,2.054774736E1
3.479464208E0,-2.925032208E0,-9.378328720E0,-5.566559241E0,1.129138808E1
3.489505208E0,7.090678686E0,-7.748429636E0,1.012184020E0,1.055179618E1
3.499546208E0,1.686371493E1,-6.589278774E0,1.101109528E1,2.119074551E1
3.509588208E0,2.166009354E1,-3.836471918E0,2.662084791E1,3.453328413E1
3.519629208E0,1.900803275E1,-1.376496253E0,3.754407123E1,4.210412492E1
3.529670208E0,1.134429886E1,-5.556115530E0,3.721433271E1,3.929974676E1
3.539711208E0,3.079607154E0,-9.796045035E0,3.299060584E1,3.455179521E1
3.549753208E0,-1.791961098E-1,-1.193391455E1,2.947249289E1,3.179745689E1
3.559794208E0,4.744997960E-1,-1.517747383E1,2.383706572E1,2.826281239E1
3.569835208E0,-8.214838055E-1,-1.947795476E1,1.546231860E1,2.488270190E1
3.579876208E0,-7.466398544E0,-2.118082066E1,1.770024683E0,2.252792175E1
3.589918208E0,-1.413075323E1,-1.474206325E1,-1.215996323E1,2.376702172E1
3.599959208E0,-1.760006766E1,-1.210544262E1,-1.912526241E1,2.867193374E1
3.610000208E0,-1.806441376E1,-1.304582341E1,-1.986969716E1,2.985500659E1
3.620041208E0,-1.191747568E1,-1.054956987E1,-1.536540451E1,2.212273281E1
3.630083208E0,-3.463462244E0,-7.914673578E0,-9.369105322E0,1.274432278E1
3.640124208E0,4.086374314E0,-5.139893762E0,-3.691746606E0,7.532991167E0
3.650165208E0,1.084507996E1,-2.982755336E0,3.460238382E0,1.176800061E1
3.660206208E0,1.666748822E1,-2.146823353E0,1.151669466E1,2.037273349E1
3.670248208E0,1.528256116E1,-1.620871568E-1,1.815176181E1,2.372908352E1
3.680289208E0,7.518583190E0,4.681859726E-1,1.998289224E1,2.135566139E1
3.690330208E0,1.428727091E0,-2.153679798E0,1.878676592E1,1.896370669E1
3.700371208E0,-7.823152082E-1,-4.497314583E0,1.737496272E1,1.796460924E1
3.710413208E0,-7.355656958E-1,-6.230080808E0,1.489630695E1,1.616338222E1
3.720454208E0,8.640883729E-2,-8.479050926E0,1.112556271E1,1.398856378E1
3.730495208E0,-1.000891146E0,-1.127857265E1,5.268995022E0,1.248880669E1
3.740536208E0,-5.560196301E0,-1.188681055E1,-6.363937608E0,1.458464089E1
3.750577208E0,-6.987881126E0,-9.729224224E0,-1.963132723E1,2.299733235E1
3.760619208E0,-4.271592178E0,-6.767899518E0,-2.573323122E1,2.694902879E1
3.770660208E0,-4.617423409E0,-5.585154557E0,-2.379284206E1,2.487194974E1
3.780701208E0,-2.503707576E0,-3.250987583E0,-1.814277815E1,1.860101801E1
3.790742208E0,2.948022290E0,9.276198328E-2,-1.400674314E1,1.431391958E1
3.800784208E0,7.909917453E0,1.834889016E0,-1.112627607E1,1.377416535E1
3.810825208E0,1.169022482E1,8.637255532E-1,-7.344061344E0,1.383266479E1
3.820866208E0,1.206611308E1,-4.464033401E-1,-7.006619114E-1,1.209468015E1
3.830907208E0,9.009030858E0,-1.731711388E-1,9.383661965E0,1.300944799E1
3.840949208E0,8.033942159E0,-2.922432536E-1,1.794375998E1,1.966235375E1
3.850990208E0,9.864373258E0,-2.051475146E0,2.097604883E1,2.327034668E1
3.861031208E0,1.172253536E1,-2.488144042E0,1.984159544E1,2.317968088E1
3.871072208E0,1.118341272E1,-2.737740043E0,1.637478479E1,2.001743034E1
3.881114208E0,8.518275218E0,-5.241547607E0,1.159114258E1,1.530978185E1
3.891155208E0,1.873360479E0,-9.804665585E0,3.405752564E0,1.054704211E1
3.901196208E0,-1.001027766E1,-1.218324216E1,-1.240633917E1,2.006375588E1
3.911237208E0,-1.140414862E1,-9.408284590E0,-2.579998070E1,2.973565921E1
3.921279208E0,-1.054510727E1,-6.377608983E0,-2.946144866E1,3.193509263E1
3.931320208E0,-9.202910496E0,-7.688819611E0,-2.652774854E1,2.911241920E1
3.941361208E0,-4.009737197E0,-7.044016151E0,-2.023115332E1,2.179439654E1
3.951402208E0,1.751792188E0,-5.653085754E0,-1.523163308E1,1.634101590E1
3.961443208E0,5.883058500E0,-5.903355939E0,-1.135557463E1,1.408577523E1
3.971485208E0,7.493517346E0,-8.663763299E0,-6.646392623E0,1.324341843E1
3.981526208E0,6.129193534E0,-8.731213270E0,2.137988795E0,1.087989405E1
3.991567208E0,3.674307870E0,-5.348370974E0,1.676090450E1,1.797313357E1
4.001608208E0,3.570409280E0,-4.581806265E0,2.694903342E1,2.756793741E1
4.011650208E0,5.443850158E0,-6.299566780E0,2.749722392E1,2.873007778E1
4.021691208E0,5.768888106E0,-6.136984949E0,2.326719375E1,2.474479661E1
4.031732208E0,4.959593114E0,-6.410425896E0,1.783636300E1,1.959150247E1
4.041773208E0,3.026463566E0,-9.306340140E0,1.111448691E1,1.480875646E1
4.051815208E0,-2.168688870E0,-1.218589797E1,2.027833538E0,1.254238532E1
4.061856208E0,-9.757114273E0,-8.910817516E0,-7.619084548E0,1.525301272E1
4.071897208E0,-1.391614170E1,-5.271684156E0,-1.290029323E1,1.969434485E1
4.081938208E0,-1.596537327E1,-6.200430163E0,-1.475987387E1,2.260956335E1
4.091980208E0,-1.573444217E1,-7.651450056E0,-1.510274290E1,2.311298772E1
4.102021208E0,-1.308800172E1,-8.263704990E0,-1.353486348E1,2.056154514E1
4.112062208E0,-8.814591057E0,-9.413478087E0,-1.031940709E1,1.651668090E1
4.122103208E0,-2.849794915E0,-1.091632361E1,-6.301133834E0,1.292252838E1
4.132145208E0,2.504744579E0,-1.112842902E1,1.434844741E0,1.149671506E1
4.142186208E0,5.962097068E0,-8.448180551E0,1.789205422E1,2.066504199E1
4.152227208E0,6.229712434E0,-5.760820118E0,3.638541972E1,3.736168002E1
4.162268208E0,1.359864140E0,-8.131274326E0,4.241007030E1,4.320394561E1
4.172310208E0,-4.257399232E0,-1.080050430E1,3.795747406E1,3.969315027E1
4.182351208E0,-8.883123933E0,-1.167850349E1,3.263715802E1,3.578381504E1
4.192392208E0,-1.199444258E1,-1.415703179E1,2.684948808E1,3.263714467E1
4.202433208E0,-1.574853162E1,-1.710178197E1,1.908455409E1,3.007835434E1
4.212475208E0,-1.831988329E1,-1.482580474E1,6.744969662E0,2.451361307E1
4.222516208E0,-1.916860782E1,-7.272366879E0,-5.518085824E0,2.123139460E1
4.232557208E0,-1.451868324E1,-5.639533077E0,-1.190055267E1,1.960152163E1
4.242598208E0,-5.796818501E0,-6.171691682E0,-1.239574284E1,1.501157299E1
4.252640208E0,2.446990315E0,-3.426277168E0,-9.794951606E0,1.066152962E1
4.262681208E0,7.040948702E0,-6.502489722E-1,-6.265718418E0,9.447592796E0
4.272722208E0,9.144764029E0,1.357452748E0,-1.537136516E0,9.371882190E0
4.282763208E0,1.072074828E1,3.922477151E0,8.016268365E0,1.394922324E1
4.292804208E0,1.265147784E1,5.593531862E0,2.204546247E1,2.602594678E1
4.302846208E0,1.254091283E1,3.735897177E0,3.276218319E1,3.527877648E1
4.312887208E0,6.797610390E0,1.350223836E0,3.731056618E1,3.794876757E1
4.322928208E0,4.619721365E0,-2.411134458E0,3.262594540E1,3.303948711E1
4.332969208E0,5.475642639E0,-6.630201098E0,2.581235808E1,2.720698547E1
4.343011208E0,4.317251916E0,-1.178361187E1,1.847219274E1,2.233190716E1
4.353052208E0,-2.013288589E0,-1.774233860E1,8.419721568E0,1.974172285E1
4.363093208E0,-1.334775375E1,-1.743635498E1,-1.051892812E1,2.434824129E1
4.373134208E0,-1.541021523E1,-9.486212187E0,-2.544196036E1,3.122108746E1
4.383176208E0,-9.095055680E0,-5.615355425E0,-2.824329355E1,3.019827619E1
4.393217208E0,-7.322830689E0,-6.226573064E0,-2.234132457E1,2.432136602E1
4.403258333E0,-6.645880991E0,-5.161104537E0,-1.482049546E1,1.704264710E1
4.413299333E0,-7.165104970E0,-4.368287584E0,-7.526637145E0,1.127257434E1
4.423341333E0,-7.361158018E0,-3.042650705E0,-2.681036085E-1,7.969708290E0
4.433382333E0,-2.056876658E0,-3.624607707E0,6.705366470E0,7.894964352E0
4.443423333E0,5.334089150E0,-4.669758328E0,1.472859361E1,1.634596646E1
4.453464333E0,5.225979395E0,-3.533559542E0,2.273348329E1,2.359254472E1
4.463506333E0,-1.110149440E-1,-4.709954427E0,2.646722285E1,2.688326394E1
4.473547333E0,-3.636281088E0,-7.976382753E0,2.874042149E1,3.004757976E1
4.483588333E0,-3.788751622E0,-1.116082844E1,2.840667879E1,3.075480662E1
4.493629333E0,-2.234640639E0,-1.334655975E1,2.466749431E1,2.813555671E1
4.503671333E0,-1.876675558E0,-1.494225204E1,1.908053355E1,2.430760308E1
4.513712333E0,-6.507327708E0,-1.873567880E1,5.891565614E0,2.069013096E1
4.523753333E0,-1.236897078E1,-1.831399164E1,-1.557745612E1,2.703795235E1
4.533794333E0,-4.897047494E0,-1.154435667E1,-2.713827972E1,2.989547576E1
4.543836333E0,-4.377559806E0,-9.442423559E0,-2.512992720E1,2.719991974E1
4.553877333E0,-5.481278186E0,-8.939379995E0,-1.874635815E1,2.147982470E1
4.563918333E0,-2.679009732E0,-6.744595440E0,-1.263234224E1,1.456855282E1
4.573959333E0,-8.056936920E-2,-5.236171092E0,-7.420780322E0,9.082508448E0
4.584001333E0,3.401308096E0,-3.551489444E0,-1.485796793E0,5.137077588E0
4.594042333E0,7.378816609E0,-4.627299941E0,3.903322842E0,9.544357941E0
4.604083333E0,8.202744259E0,-5.205355681E0,9.613781476E0,1.366768215E1
4.614124333E0,5.092933019E0,-4.656179924E0,1.661202855E1,1.798825924E1
4.624165333E0,1.858725191E0,-6.260115616E0,2.231245336E1,2.324842966E1
4.634207333E0,1.148427653E0,-8.242809965E0,2.483212383E1,2.618963872E1
4.644248333E0,2.961970823E0,-8.831565524E0,2.352788133E1,2.530476281E1
4.654289333E0,6.051796280E0,-9.127993045E0,2.007392403E1,2.286715813E1
4.664330333E0,7.681735125E0,-1.055589539E1,1.586829078E1,2.054844603E1
4.674372333E0,3.765291131E0,-1.504409767E1,7.292811669E0,1.713731000E1
4.684413333E0,-2.811947057E0,-1.884376341E1,-1.033061971E1,2.167293633E1
4.694454333E0,-1.587571675E-1,-1.470049306E1,-2.414257806E1,2.826647795E1
4.704495333E0,4.080956576E0,-1.024873179E1,-2.568208446E1,2.795103168E1
4.714537333E0,5.010579665E0,-9.969364693E0,-2.047905655E1,2.332136141E1
4.724578333E0,9.499135119E0,-6.915561594E0,-1.545269759E1,1.941248111E1
4.734619333E0,1.311981174E1,-6.023152524E0,-1.195898390E1,1.874633624E1
4.744660333E0,1.284907279E1,-7.814076326E0,-7.341718365E0,1.673497204E1
4.754702333E0,8.877450380E0,-7.627528512E0,-5.689574718E-2,1.170433909E1
4.764743333E0,4.825067685E0,-5.670007596E0,7.735378650E0,1.073621661E1
4.774784333E0,6.054937404E0,-5.754954776E0,1.342770507E1,1.581407711E1
4.784825333E0,1.063202730E1,-6.195308586E0,1.674126605E1,2.077719524E1
4.794867333E0,1.376432927E1,-5.076843236E0,1.757824468E1,2.289597746E1
4.804908333E0,1.586568994E1,-3.577983763E0,1.591748809E1,2.275716397E1
4.814949333E0,1.668439486E1,-3.312822474E0,1.298206771E1,2.139808184E1
4.824990333E0,1.405829102E1,-5.078310887E0,8.024282559E0,1.696507880E1
4.835032333E0,3.332741306E0,-9.294457428E0,-3.218937240E0,1.038535798E1
4.845073333E0,-9.532395836E0,-1.304165084E1,-1.889206843E1,2.485681952E1
4.855114333E0,-7.961484048E0,-1.298449899E1,-2.879961870E1,3.257914178E1
4.865155333E0,-8.620102140E0,-1.210550694E1,-2.994629745E1,3.343097650E1
4.875197333E0,-1.017946685E1,-1.448799004E1,-2.776179405E1,3.292780906E1
4.885238333E0,-6.014596294E0,-1.545114574E1,-2.191825045E1,2.748313985E1
4.895279333E0,1.439353163E-1,-1.573239915E1,-1.478239618E1,2.158815270E1
4.905320333E0,4.712657595E0,-1.834612092E1,-7.737816939E0,2.046125865E1
4.915361333E0,5.234120473E0,-2.044339789E1,3.697703165E-1,2.110604806E1
4.925403333E0,4.058047185E0,-1.817690133E1,1.418116324E1,2.340882056E1
4.935444333E0,4.949555199E0,-1.301230834E1,3.280301079E1,3.563503588E1
4.945485333E0,7.505404150E0,-1.171563682E1,4.476178302E1,4.687434753E1
4.955526333E0,8.520010672E0,-1.385533768E1,4.218866198E1,4.521553011E1
4.965568333E0,8.234076564E0,-1.389100569E1,3.406691686E1,3.770032997E1
4.975609333E0,8.196480137E0,-1.331546075E1,2.749251340E1,3.162786864E1
4.985650333E0,5.947839217E0,-1.411892080E1,2.248503510E1,2.720840898E1
4.995691333E0,-1.629205019E0,-1.514502295E1,1.740815970E1,2.313158130E1
5.005733333E0,-1.439874632E1,-1.213261697E1,6.733324932E0,1.999654857E1
5.015774333E0,-2.307460751E1,-5.374067148E0,-7.937405214E0,2.498640653E1
5.025815333E0,-2.046878650E1,-5.489557258E0,-1.477673373E1,2.583521472E1
5.035856333E0,-1.843374028E1,-8.280615723E0,-1.216964622E1,2.358965168E1
5.045898333E0,-1.622679878E1,-8.585125265E0,-5.839762791E0,1.926437655E1
5.055939333E0,-1.309363961E1,-7.037278404E0,1.466940107E0,1.493715497E1
5.065980333E0,-9.449646040E0,-6.652300649E0,1.021505534E1,1.542388634E1
5.076021333E0,-4.275237917E0,-6.219009106E0,2.086854894E1,2.219121602E1
5.086063333E0,2.403131081E0,-9.755652469E-1,3.374191926E1,3.384145212E1
5.096104333E0,7.589025182E0,8.256753820E-1,4.266632804E1,4.334386452E1
5.106145333E0,6.181592188E0,-3.742510963E0,4.280026670E1,4.340600534E1
5.116186333E0,-6.960391027E-1,-1.089220969E1,3.671512083E1,3.830306515E1
5.126228333E0,-4.676937540E0,-1.579910653E1,3.124636971E1,3.532451177E1
5.136269333E0,-2.139038370E0,-1.816576238E1,2.814028900E1,3.356257250E1
5.146310333E0,2.025953512E0,-1.937383222E1,2.429794560E1,3.114225462E1
5.156351333E0,3.610271796E0,-1.854654476E1,1.760005246E1,2.582189442E1
5.166393333E0,-7.222612336E-1,-1.517257269E1,6.910935277E0,1.668800916E1
5.176434333E0,-8.614704575E0,-1.048048034E1,-2.336660518E0,1.376639333E1
5.186475333E0,-1.529871117E1,-7.069488961E0,-8.468176859E0,1.886102481E1
5.196516333E0,-2.163933593E1,-5.746192723E0,-1.492395142E1,2.690732086E1
5.206558333E0,-1.940342264E1,-4.406607311E0,-1.737550885E1,2.641626972E1
5.216599333E0,-1.068375762E1,-3.558592057E0,-1.326396900E1,1.739940022E1
5.226640333E0,-4.898198519E0,-3.847742718E0,-6.122881465E0,8.734251553E0
5.236681333E0,-2.542334867E0,-4.812480091E0,2.498042355E-1,5.448470736E0
5.246722333E0,-2.248206471E0,-5.207272983E0,5.142756559E0,7.656243810E0
5.256764333E0,-2.202008790E0,-3.297819103E0,9.409872694E0,1.021127601E1
5.266805333E0,1.121750901E0,-1.249996127E0,1.206055588E1,1.217693819E1
5.276846333E0,8.037298461E0,3.592997074E-1,1.442424954E1,1.651624163E1
5.286887333E0,1.507549020E1,1.904535202E0,2.206894489E1,2.679432753E1
5.296929333E0,1.574249378E1,-4.991206670E-1,3.018127833E1,3.404386573E1
5.306970333E0,9.058327564E0,-6.375244369E0,3.061011547E1,3.255266822E1
5.317011333E0,4.298461888E0,-1.046242764E1,2.565810152E1,2.804063730E1
5.327052333E0,4.906754749E0,-1.341256078E1,2.000544144E1,2.458029121E1
5.337094333E0,5.136502962E0,-1.682001752E1,1.261480410E1,2.164324223E1
5.347135333E0,-1.105884481E0,-2.077591969E1,-8.069526706E-1,2.082097481E1
5.357176333E0,-1.287008535E1,-1.941052350E1,-2.137645213E1,3.161265925E1
5.367217333E0,-1.117597039E1,-1.422930220E1,-3.452851243E1,3.898196411E1
5.377259333E0,-1.199259253E1,-1.047315378E1,-3.591809154E1,3.928891097E1
5.387300333E0,-1.463912185E1,-1.306045081E1,-3.114403642E1,3.680801908E1
5.397341333E0,-1.010974465E1,-1.398492367E1,-2.290916873E1,2.868126634E1
5.407383083E0,-6.033888597E0,-1.278563752E1,-1.456415587E1,2.029765934E1
5.417425083E0,-2.061915935E0,-1.314213173E1,-9.345846267E0,1.625767407E1
5.427466083E0,1.525596451E0,-1.771565776E1,-6.634762511E0,1.897872619E1
5.437507083E0,-1.604838502E-1,-1.929520588E1,-3.955367154E0,1.969709761E1
5.447548083E0,-5.807110185E0,-1.666242219E1,6.328730353E0,1.874597743E1
5.457590083E0,-8.432505335E0,-1.232857354E1,2.042901140E1,2.530702232E1
5.467631083E0,-1.094233319E0,-1.168657031E1,2.827282199E1,3.061250946E1
5.477672083E0,4.729825605E0,-1.369661033E1,3.098099500E1,3.420219929E1
5.487713083E0,6.325765815E0,-1.539892192E1,2.662339964E1,3.139980123E1
5.497755083E0,3.962244650E0,-1.803290897E1,1.896261041E1,2.646631410E1
5.507796083E0,-2.554592970E0,-2.080531715E1,1.154989632E1,2.393297458E1
5.517837083E0,-1.288467415E1,-2.278361732E1,1.979137487E0,2.624928630E1
5.527878083E0,-2.342040015E1,-2.089691028E1,-1.502938023E1,3.480054989E1
5.537920083E0,-1.899359714E1,-1.469202044E1,-2.838805424E1,3.718190179E1
5.547961083E0,-1.862578857E1,-1.355869556E1,-3.119737005E1,3.878187880E1
5.558002083E0,-2.549330359E1,-2.123665923E1,-2.408737567E1,4.100129132E1
5.568043083E0,-2.185854804E1,-2.798525592E1,-1.655453872E1,3.917937498E1
5.578085083E0,-1.285022937E1,-3.220481958E1,-1.117840283E1,3.643124330E1
5.588126083E0,-4.980796287E0,-3.531425192E1,-5.592516786E0,3.609959784E1
5.598167083E0,-1.992727878E0,-3.748775787E1,8.004989525E-1,3.754921774E1
5.608208083E0,-2.463823718E0,-3.131442195E1,1.329794834E1,3.411009937E1
5.618249083E0,-2.532767653E0,-1.838428921E1,3.215228819E1,3.712366681E1
5.628291083E0,6.166160801E-1,-1.013244938E1,4.513958332E1,4.626692909E1
5.638332083E0,-3.757800847E-2,-7.223523917E0,4.576328944E1,4.632989715E1
5.648373083E0,-5.296345958E0,-4.575404148E0,3.924192256E1,3.986118526E1
5.658414083E0,-6.901162241E0,-5.567587767E0,3.101064272E1,3.225343448E1
5.668456083E0,-4.619407369E0,-7.423400459E0,2.257189432E1,2.420611931E1
5.678497083E0,-3.387831433E0,-8.013206179E0,1.436997685E1,1.679836629E1
5.688538083E0,-8.498794634E0,-1.046715687E1,-1.984829167E0,1.362829520E1
5.698579083E0,-1.622894938E1,-8.259935875E0,-2.786126221E1,3.328445989E1
5.708621083E0,-8.171245308E0,-3.594704461E-1,-4.097609914E1,4.178443693E1
5.718662083E0,-6.621385251E0,9.941441900E-1,-4.053600494E1,4.108526210E1
5.728703083E0,-9.142395907E0,-5.271434480E0,-3.503123031E1,3.658631604E1
5.738744083E0,-7.551530496E0,-7.547729806E0,-2.636107015E1,2.844116484E1
5.748786083E0,-2.133009891E0,-1.018886566E1,-1.779337661E1,2.061472691E1
5.758827083E0,2.553242848E0,-1.579385456E1,-8.476540716E0,1.810570720E1
5.768868083E0,2.269050041E0,-2.157109424E1,2.868707149E0,2.187898936E1
5.778909083E0,-1.483232643E0,-2.109693417E1,1.976571495E1,2.894760954E1
5.788951083E0,-3.371206630E0,-1.413637825E1,3.924951927E1,4.185363768E1
5.798992083E0,1.798748984E-1,-1.088311961E1,4.904874636E1,5.024195624E1
5.809033083E0,5.203714952E0,-8.426830612E0,4.759083435E1,4.861046840E1
5.819074083E0,7.748076464E0,-7.132626611E0,3.895907871E1,4.035736445E1
5.829116083E0,9.252743976E0,-8.768348937E0,2.836281064E1,3.109575922E1
5.839157083E0,8.627606456E0,-1.005273196E1,1.921446519E1,2.333856648E1
5.849198083E0,3.770082924E0,-1.306559636E1,1.016014531E1,1.697503715E1
5.859239083E0,-3.388382241E0,-1.440181728E1,-3.016004359E0,1.509932970E1
5.869281083E0,-7.625541043E0,-7.637282837E0,-1.934658420E1,2.215326805E1
5.879322083E0,-1.097317506E0,1.873523909E-1,-2.678427759E1,2.680740071E1
5.889363083E0,7.939550557E0,-1.804579389E-1,-2.423281697E1,2.550094991E1
5.899404083E0,1.335071244E1,-5.956973737E-1,-1.856900275E1,2.287802966E1
5.909446083E0,1.420196062E1,-3.943227750E-1,-1.311448142E1,1.933496312E1
5.919487083E0,1.153422461E1,-1.990490441E0,-6.834805698E0,1.355414913E1
5.929528083E0,7.504193192E0,-2.956099634E0,2.059934313E0,8.324348016E0
5.939569083E0,4.247433822E0,-3.402932160E0,1.352119269E1,1.457543458E1
5.949610083E0,3.649754827E0,-3.101471940E0,2.510525429E1,2.555804436E1
5.959652083E0,5.897616313E0,-3.764197701E0,3.103062149E1,3.180959812E1
5.969693083E0,9.373507106E0,-6.293954623E0,2.876277656E1,3.089941449E1
5.979734083E0,1.009967106E1,-9.240112236E0,2.213106103E1,2.602243056E1
5.989775083E0,6.272915756E0,-1.212842451E1,1.463883417E1,2.001858185E1
5.999817083E0,-1.348970777E0,-1.537395898E1,7.295170435E0,1.707037928E1
6.009858083E0,-9.395558710E0,-1.674770734E1,-3.351571387E0,1.949346699E1
6.019899083E0,-1.538355894E1,-9.809481352E0,-1.866915737E1,2.610396995E1
6.029940083E0,-1.450502181E1,-1.443959965E0,-2.828269677E1,3.181810199E1
6.039982083E0,-6.439018196E0,-3.514474815E0,-2.615910733E1,2.716820540E1
6.050023083E0,2.592332946E0,-5.451181397E0,-1.787800687E1,1.886951770E1
6.060064083E0,7.514230523E0,-5.437308294E0,-1.072296437E1,1.417779767E1
6.070105083E0,9.172353532E0,-5.386346301E0,-4.064993677E0,1.138722834E1
6.080147083E0,8.012173560E0,-4.994139633E0,4.018550413E0,1.026085295E1
6.090188083E0,4.060863789E0,-4.186502327E0,1.318477197E1,1.441719905E1
6.100229083E0,-8.470107025E-1,-4.580028711E0,2.088257992E1,2.139570598E1
6.110270083E0,-2.955878902E0,-5.177939841E0,2.561978120E1,2.630440020E1
6.120312083E0,-2.162524589E0,-6.104515945E0,2.727893566E1,2.803715318E1
6.130353083E0,-3.714864012E-1,-8.178025739E0,2.433675942E1,2.567675926E1
6.140394083E0,-9.149763983E-1,-9.271426415E0,1.921755486E1,2.135675407E1
6.150435083E0,-4.585885575E0,-1.072603182E1,1.349257174E1,1.783613179E1
6.160477083E0,-8.999478262E0,-1.403209433E1,4.690132366E0,1.731726369E1
6.170518083E0,-1.408900411E1,-1.119058141E1,-7.874524841E0,1.964019579E1
6.180559083E0,-1.857287945E1,-2.463376991E0,-1.776168002E1,2.581661005E1
6.190600083E0,-1.668385107E1,-1.541437728E0,-1.954710510E1,2.574521770E1
6.200642083E0,-9.157751865E0,-4.525117509E0,-1.441813803E1,1.766985603E1
6.210683083E0,-2.428106878E0,-5.679263154E0,-7.867415212E0,1.000229749E1
6.220724083E0,2.167197099E0,-5.590630474E0,-3.226505291E-1,6.004664498E0
6.230765083E0,3.643862295E0,-4.647044819E0,9.355301215E0,1.106320111E1
6.240806083E0,2.892630447E0,-2.395010176E0,1.921638308E1,1.957990713E1
6.250848083E0,6.577203982E-1,-8.749656558E-1,2.373180415E1,2.375703452E1
6.260889083E0,-2.672010030E0,-2.356314472E0,2.128959291E1,2.158561145E1
6.270930083E0,-4.468714097E0,-3.345209616E0,1.706083860E1,1.795082301E1
6.280971083E0,-4.630758569E0,-3.871796994E0,1.276830988E1,1.412318923E1
6.291013083E0,-3.879118293E0,-4.792233523E0,8.432410026E0,1.044598486E1
6.301054083E0,-3.227839041E0,-5.323807991E0,3.888316548E0,7.340359799E0
6.311095083E0,-2.257679545E0,-4.856145929E0,-6.923360610E-1,5.399870316E0
6.321136083E0,-7.746234152E-1,-3.935146898E0,-5.251522372E0,6.607867263E0
6.331178083E0,1.390044324E-1,-2.956607757E0,-8.607150557E0,9.101862028E0
6.341219083E0,6.391535881E-1,-1.957899815E0,-9.721022919E0,9.936809125E0
6.351260083E0,1.108648387E0,-1.240123104E0,-8.421717222E0,8.584423541E0
6.361301083E0,1.679362582E0,-1.078790823E0,-5.872854524E0,6.202779101E0
6.371343083E0,2.381083570E0,-1.097421221E0,-2.924728737E0,3.927840436E0
6.381384083E0,3.038026727E0,-1.130790696E0,2.025153905E-1,3.247969593E0
6.391425083E0,3.711520135E0,-1.089135132E0,3.162832621E0,4.996509506E0
6.401466083E0,4.320861110E0,-1.216929538E0,5.369815053E0,6.998976492E0
6.411507708E0,4.469597027E0,-1.734802226E0,6.271407759E0,7.894136535E0
6.421548708E0,4.310640762E0,-2.463792143E0,5.763081821E0,7.606905256E0
6.431589708E0,3.691545462E0,-3.248521228E0,4.391606864E0,6.592921122E0
6.441630708E0,2.870412489E0,-3.700946615E0,2.693355584E0,5.402817599E0
6.451672708E0,2.352502964E0,-3.621255498E0,9.888735098E-1,4.430082663E0
6.461713708E0,2.359043952E0,-3.398078386E0,-9.355539197E-1,4.241142090E0
6.471754708E0,3.153772361E0,-2.725742142E0,-2.657071856E0,4.943276360E0
6.481795708E0,4.424748883E0,-1.962687516E0,-3.814108949E0,6.162627040E0
6.491837708E0,5.635830621E0,-1.384156398E0,-3.995394854E0,7.045683484E0
6.501878708E0,6.241924344E0,-9.079550618E-1,-3.110425197E0,7.032833484E0
6.511919708E0,6.137794204E0,-8.115514326E-1,-1.194542304E0,6.305399649E0
6.521960708E0,8.351503272E0,-7.136707968E-1,6.344385104E0,1.051228592E1
6.532001708E0,5.849658034E0,-1.076929069E0,5.484136890E0,8.090366664E0
6.542043708E0,3.708686282E0,-1.037193146E0,3.802808620E0,5.412160102E0
6.552084708E0,3.020612842E0,-1.399133456E0,2.802354115E0,4.351421027E0
6.562125708E0,2.499991086E0,-1.618708098E0,9.666476583E-1,3.131226442E0
6.572166708E0,2.311221914E0,-1.610004517E0,5.977310354E-1,2.879434610E0
6.582208708E0,1.914568585E0,-1.720275988E0,6.292194611E-1,2.649686674E0
6.592249708E0,1.719037840E0,-1.766753166E0,9.026457900E-1,2.625124239E0
6.602290708E0,1.507672981E0,-1.922600759E0,1.005064450E0,2.641898190E0
6.612331708E0,1.450673446E0,-2.127795344E0,8.104182422E-1,2.699767434E0
6.622373708E0,1.322675264E0,-2.118008859E0,4.709534597E-1,2.541107739E0
6.632414708E0,1.383701046E0,-2.180175287E0,3.440326273E-2,2.582436146E0
6.642455708E0,1.633125870E0,-2.227321971E0,-1.887054366E-1,2.768333978E0
6.652496708E0,1.867969346E0,-2.154101382E0,-6.074321508E-2,2.851868157E0
6.662538708E0,1.999148998E0,-2.103509519E0,2.988482684E-1,2.917303429E0
6.672579708E0,2.042217396E0,-2.119347287E0,6.430715150E-1,3.012611125E0
6.682620708E0,2.214120420E0,-2.046137808E0,9.125433719E-1,3.149880088E0
6.692661708E0,2.528728981E0,-1.880176871E0,1.169297535E0,3.361070075E0
6.702703708E0,3.018973867E0,-1.852597309E0,1.593207221E0,3.883893568E0
6.712744708E0,3.108207933E0,-1.766773632E0,1.623562456E0,3.926627136E0
6.722785708E0,2.586638928E0,-1.109133779E0,1.056912881E0,3.006317269E0
6.732826708E0,2.284307473E0,-9.696847022E-1,5.535874808E-1,2.542598700E0
6.742868708E0,1.922089274E0,-1.383739491E0,8.891217649E-1,2.529762769E0
6.752909708E0,1.706204664E0,-1.606533026E0,1.410297545E0,2.735145678E0
6.762950708E0,1.609614362E0,-1.651086470E0,1.744674665E0,2.891510783E0
6.772991708E0,1.670570562E0,-1.694841185E0,1.934479963E0,3.066839639E0
6.783033708E0,1.843056115E0,-1.776789912E0,1.934260107E0,3.208613469E0
6.793074708E0,1.997999728E0,-1.709999506E0,1.823783984E0,3.200357675E0
6.803115708E0,2.084079221E0,-1.634715436E0,1.619529047E0,3.104602243E0
6.813156708E0,1.995029635E0,-1.732179750E0,1.421839948E0,3.000369772E0
6.823197708E0,1.770116485E0,-1.913756261E0,1.306496018E0,2.915940198E0
6.833239708E0,1.545173514E0,-1.883546621E0,1.374327813E0,2.797156771E0
6.843280708E0,1.511227211E0,-1.875969214E0,1.315137033E0,2.744568016E0
6.853321708E0,1.613804623E0,-1.896330974E0,1.140233949E0,2.738716849E0
6.863362708E0,1.692579189E0,-1.866159925E0,1.188813202E0,2.785795041E0
6.873404708E0,1.803248855E0,-1.844387818E0,1.448899693E0,2.958510297E0
6.883445708E0,1.915087818E0,-1.870884476E0,1.684059504E0,3.162882623E0
6.893486708E0,1.785872100E0,-1.949893808E0,1.692724493E0,3.139544748E0
6.903527708E0,1.514049954E0,-1.938603419E0,1.496803007E0,2.879400931E0
6.913569708E0,1.353788737E0,-1.821850895E0,1.309179890E0,2.620274148E0
6.923610708E0,1.380496333E0,-1.706026908E0,1.213034123E0,2.507538578E0
6.933651708E0,1.428856607E0,-1.748971784E0,1.270246789E0,2.591150403E0
6.943692708E0,1.539172224E0,-1.790160155E0,1.157530013E0,2.629372596E0
6.953734708E0,1.651821465E0,-1.714710023E0,1.102161559E0,2.623643405E0
6.963775708E0,1.796577182E0,-1.682393632E0,1.095379958E0,2.694066658E0
6.973816708E0,1.897964101E0,-1.723593113E0,9.721744466E-1,2.741927078E0
6.983857708E0,2.053622390E0,-1.832216839E0,9.065452981E-1,2.897621066E0
6.993899708E0,1.930215150E0,-1.852189758E0,1.099098787E0,2.892119563E0
7.003940708E0,1.644785656E0,-1.886374919E0,1.475733735E0,2.905429443E0
7.013981708E0,1.530678705E0,-1.926865718E0,1.562702882E0,2.915103616E0
7.024022708E0,1.493157414E0,-1.938599911E0,1.467071085E0,2.853066113E0
7.034064708E0,1.588642446E0,-1.846218581E0,1.502491179E0,2.861780497E0
7.044105708E0,1.770482667E0,-1.831425126E0,1.446188924E0,2.929196010E0
7.054146708E0,1.900499161E0,-1.936859195E0,1.160233181E0,2.951179702E0
7.064187708E0,2.132190257E0,-1.889825361E0,-4.626901746E-1,2.886478371E0
7.074229708E0,2.363353350E0,-1.466450695E0,-7.858967739E-1,2.890250930E0
7.084270708E0,2.227173598E0,-1.630779090E0,1.415472330E0,3.102145160E0
7.094311708E0,2.452290962E0,-1.920631417E0,1.578852891E0,3.492181618E0
7.104352708E0,2.416950683E0,-1.908828228E0,1.652508513E0,3.495148093E0
7.114394708E0,2.358277236E0,-1.852172801E0,1.765369130E0,3.479733291E0
7.124435708E0,2.421717187E0,-1.792173352E0,1.388631272E0,3.317362848E0
7.134476708E0,2.123546026E0,-1.688761835E0,8.322564232E-1,2.837959657E0