"Time (s)","Linear Acceleration x (m/s^2)","Linear Acceleration y (m/s^2)","Linear Acceleration z (m/s^2)","Absolute acceleration (m/s^2)"
1.538387500E-2,-5.401214893E-1,-3.183873242E-1,-5.244993371E-1,8.174357871E-1
2.542587498E-2,-4.816809078E-1,-2.754909807E-1,-4.118176442E-1,6.910177635E-1
3.546687495E-2,-2.950991799E-1,-3.164390320E-1,-1.968815982E-1,4.753730647E-1
4.550787498E-2,-5.589411914E-2,-2.299458486E-1,3.559738111E-1,4.274536233E-1
5.554987496E-2,2.067658778E-1,-4.561120570E-2,9.077755523E-1,9.321421370E-1
6.559087499E-2,3.367205380E-1,7.931397200E-2,1.252110481E0,1.299019662E0
7.563187496E-2,1.610795353E-1,7.620208383E-2,1.368619176E0,1.380170940E0
8.567387500E-2,-2.733086537E-1,8.820524812E-3,1.241980180E0,1.271727246E0
9.571487497E-2,-2.617048542E-1,-1.543758488E-1,1.193434841E0,1.231506416E0
1.057558749E-1,-2.027054250E-1,-1.766876543E-1,1.248945968E0,1.277565672E0
1.157978750E-1,-3.378943665E-1,-9.478336573E-2,6.135161787E-1,7.067945889E-1
1.258388750E-1,-3.366692287E-1,-6.582503021E-2,6.563090265E-2,3.492656861E-1
1.358798750E-1,-5.346384090E-1,-1.387076497E-1,-3.167711538E-1,6.367275747E-1
1.459218750E-1,-5.454233059E-1,6.038945854E-2,-4.616189647E-1,7.170952084E-1
1.559628750E-1,-8.591364390E-1,1.227225316E-1,-6.914449453E-2,8.706073752E-1
1.660038750E-1,-9.770383798E-1,-6.373991311E-2,2.899605006E-1,1.021148307E0
1.760458749E-1,-8.561153289E-1,-4.848335803E-2,3.950168395E-1,9.440987215E-1
1.860868750E-1,-6.904679487E-1,1.219074297E-1,3.292923814E-1,7.746230580E-1
1.961278750E-1,-5.179413924E-1,2.615903950E-1,3.553458202E-1,6.804141919E-1
2.061698750E-1,-3.228606269E-1,2.416759479E-1,1.581513959E-1,4.331952357E-1
2.162108750E-1,1.695456823E-2,-2.195132464E-1,-6.780507284E-1,7.128999320E-1
2.262518750E-1,2.856373617E-1,-8.689675820E-1,-1.955983683E0,2.159297462E0
2.362938750E-1,-6.038531798E-1,-9.811657101E-1,-2.264426647E0,2.540659925E0
2.463348750E-1,-1.628055165E0,-1.047681296E0,-9.269661140E-1,2.146500849E0
2.563758750E-1,-1.122773725E0,-4.445246297E-1,-1.096067006E0,1.630823677E0
2.664178750E-1,-1.630772219E0,-1.854122847E-1,1.144742153E0,2.001057306E0
2.764588750E-1,-1.687780379E0,-6.683899587E-1,1.202987437E0,2.177734263E0
2.865008750E-1,-1.256510510E0,-1.533832254E0,6.011270982E-1,2.071910673E0
2.965418750E-1,-2.706208348E-2,-2.308930390E0,-6.127344060E-1,2.389003005E0
3.065828750E-1,8.029455006E-1,-2.539290807E0,-1.415175292E0,3.015864782E0
3.166248749E-1,1.266112662E0,-1.450724609E0,-9.702811182E-1,2.156174532E0
3.266658750E-1,1.481477747E0,5.387536794E-1,-3.436391097E-1,1.613418631E0
3.367068750E-1,1.817963373E0,1.875462846E0,-3.544073421E-1,2.635897622E0
3.467489583E-1,2.142986410E0,2.213151829E0,-4.368565911E-1,3.111474803E0
3.567899583E-1,1.421436052E0,2.065754632E0,2.844810748E-1,2.523638669E0
3.668309583E-1,1.231407829E0,1.883562993E0,1.281609099E0,2.589729073E0
3.768729583E-1,2.019914069E0,8.406220347E-1,1.597067553E0,2.708749346E0
3.869139583E-1,2.589213164E0,4.387750626E-1,2.153780370E0,3.396368391E0
3.969549583E-1,2.912155470E0,1.656650680E-1,1.811915306E0,3.433821700E0
4.069969583E-1,2.558148662E0,4.130940914E-2,1.164122749E0,2.810874031E0
4.170379583E-1,1.517478615E0,4.443474591E-1,5.523005086E-1,1.674879657E0
4.270789583E-1,-3.875943840E-1,1.369015033E0,5.654187369E-1,1.531055164E0
4.371209583E-1,-1.438802136E0,1.840398847E0,8.601727849E-1,2.489400877E0
4.471619583E-1,-1.297948997E0,1.816146936E0,1.640379049E0,2.770181350E0
4.572029583E-1,-2.046164413E-1,1.415129099E0,2.969796737E0,3.296081145E0
4.672449583E-1,3.195300163E-1,1.265483063E0,4.977414258E0,5.145697184E0
4.772859583E-1,1.201111797E0,2.192924556E0,7.110839885E0,7.537614446E0
4.873269583E-1,2.880151320E0,3.814752728E0,8.825249362E0,1.003656497E1
4.973689583E-1,4.588600437E0,5.885177531E0,9.708256693E0,1.224503232E1
5.074099583E-1,6.039856265E0,8.932458061E0,1.027269251E1,1.489284668E1
5.174519583E-1,7.405176442E0,1.161062082E1,1.082656183E1,1.751735126E1
5.274929583E-1,8.965723456E0,1.302486465E1,1.244260243E1,2.012087601E1
5.375339583E-1,1.102530635E1,1.303081712E1,1.480710768E1,2.259668146E1
5.475759583E-1,1.297325947E1,1.208815942E1,1.563914659E1,2.364343387E1
5.576169583E-1,1.476477033E1,1.135255864E1,1.433016784E1,2.349963278E1
5.676579583E-1,1.519726665E1,1.026414739E1,1.138791675E1,2.158690074E1
5.776999583E-1,1.486728255E1,8.445953931E0,8.221854129E0,1.897285201E1
5.877409583E-1,1.482683735E1,5.971246791E0,6.196582695E0,1.714317740E1
5.977819583E-1,1.569918814E1,2.744320500E0,4.502231507E0,1.656097496E1
6.078239583E-1,1.455475004E1,-4.835068470E-1,4.123373448E0,1.513528117E1
6.178649583E-1,1.306701372E1,-3.947136614E0,3.848960109E0,1.418242677E1
6.279059583E-1,1.265777763E1,-8.405910444E0,3.344543034E0,1.555842643E1
6.379479583E-1,1.099987213E1,-1.219955940E1,3.843039218E0,1.686995516E1
6.479889583E-1,1.012994210E1,-1.563280236E1,4.611228869E0,1.919019719E1
6.580299583E-1,9.874583666E0,-1.979827459E1,5.004921899E0,2.268321676E1
6.680719583E-1,8.311838100E0,-2.507008680E1,5.174246739E0,2.691409917E1
6.781129583E-1,3.880274872E0,-3.106534460E1,6.089413172E0,3.189346517E1
6.881549583E-1,-3.557886883E0,-3.799058333E1,8.983871459E0,3.920016489E1
6.981959583E-1,-1.379358055E1,-4.459495026E1,1.449610247E1,4.887851716E1
7.082369583E-1,-2.475916228E1,-4.909641754E1,2.108152325E1,5.888892047E1
7.182789583E-1,-3.039073495E1,-5.054181182E1,2.455112536E1,6.388136872E1
7.283199583E-1,-2.862237322E1,-4.991226316E1,2.371679551E1,6.223311540E1
7.383609583E-1,-2.160571444E1,-4.853066434E1,2.018224487E1,5.682741667E1
7.484029583E-1,-1.240281914E1,-4.628419683E1,1.479181838E1,5.014832689E1
7.584439583E-1,-3.815665770E0,-4.256837080E1,7.905821478E0,4.346409451E1
7.684849583E-1,4.662757457E0,-3.783751726E1,1.825874949E0,3.816743165E1
7.785269583E-1,1.230376263E1,-3.118513299E1,-2.735902848E0,3.363599648E1
7.885679583E-1,1.800321797E1,-2.269326380E1,-4.829589629E0,2.936707366E1
7.986089583E-1,2.255149221E1,-1.296083063E1,-3.484642321E0,2.624301171E1
8.086509583E-1,2.698070194E1,-1.857142349E0,-9.800978623E-2,2.704471964E1
8.186919583E-1,2.984418635E1,1.070344520E1,2.994994143E0,3.184665113E1
8.287329583E-1,3.411994409E1,2.299344114E1,6.176909153E0,4.160556605E1
8.387749583E-1,3.939343562E1,3.469694499E1,1.005590816E1,5.344943452E1
8.488159583E-1,4.211589455E1,4.436374668E1,1.297748934E1,6.253243816E1
8.588579583E-1,4.269085360E1,5.017238942E1,1.376656291E1,6.730004380E1
8.688989583E-1,3.868134766E1,5.134080812E1,1.155365257E1,6.531165380E1
8.789399583E-1,3.057759793E1,4.763885636E1,7.889023597E0,5.715493701E1
8.889819583E-1,2.452059588E1,4.213159783E1,4.744150114E0,4.897793501E1
8.990229583E-1,2.265977095E1,3.623699166E1,3.430138085E0,4.287599132E1
9.090639583E-1,2.198729671E1,2.927439857E1,4.091113189E0,3.683977247E1
9.191059583E-1,2.064038591E1,2.148784860E1,5.796265354E0,3.035374540E1
9.291469583E-1,1.952951902E1,1.396021334E1,7.070271903E0,2.502555522E1
9.391879583E-1,1.821891357E1,6.739015442E0,7.884915344E0,2.096461378E1
9.492299583E-1,1.645261357E1,8.658089161E-2,8.389843465E0,1.846849920E1
9.592709583E-1,1.506511958E1,-5.445431246E0,9.062286129E0,1.840477056E1
9.693119583E-1,1.484056194E1,-1.017761562E1,1.034312223E1,2.075587425E1
9.793539583E-1,1.543014956E1,-1.441674289E1,1.080557968E1,2.372114127E1
9.893949583E-1,1.589372149E1,-1.835546243E1,1.047836949E1,2.644484092E1
9.994359583E-1,1.547096195E1,-2.261086952E1,1.022418752E1,2.924271011E1
1.009477958E0,1.324319033E1,-2.684152885E1,1.036487036E1,3.167460021E1
1.019518958E0,1.030701801E1,-3.117083071E1,1.081915926E1,3.456746323E1
1.029559958E0,6.890736070E0,-3.624751197E1,1.156845421E1,3.866773204E1
1.039601958E0,2.125910202E0,-4.168120786E1,1.280538357E1,4.365570330E1
1.049642958E0,-3.481468452E0,-4.654800917E1,1.435053603E1,4.883416493E1
1.059684958E0,-9.079433089E0,-5.027949637E1,1.573396153E1,5.346046582E1
1.069725958E0,-1.381160752E1,-5.276679900E1,1.672767712E1,5.705182522E1
1.079766958E0,-1.571350914E1,-5.347781107E1,1.700045674E1,5.827354610E1
1.089808958E0,-1.250645987E1,-5.265294202E1,1.540797925E1,5.626854953E1
1.099849958E0,-5.793789643E0,-5.081554572E1,1.218485716E1,5.257621543E1
1.109890958E0,2.716728659E0,-4.809886384E1,8.149507699E0,4.885996104E1
1.119932958E0,1.154521972E1,-4.421468946E1,3.802166596E0,4.585506878E1
1.129973958E0,2.018855986E1,-3.892802532E1,-5.577811038E-1,4.385521889E1
1.140014958E0,2.734817371E1,-3.193538690E1,-2.273574909E0,4.210653969E1
1.150056958E0,3.201899039E1,-2.219849346E1,-9.364236930E-1,3.897262817E1
1.160097958E0,3.639528749E1,-9.419310685E0,9.701504329E-1,3.760693496E1
1.170139958E0,4.168868294E1,6.784944736E0,5.472299201E0,4.259023149E1
1.180180958E0,4.486667271E1,2.310552291E1,1.342718350E1,5.222233972E1
1.190221958E0,4.145253963E1,3.578822488E1,2.233741161E1,5.914448443E1
1.200263958E0,3.225402273E1,4.526173867E1,2.917539352E1,6.277061858E1
1.210304958E0,2.578592399E1,5.248444865E1,3.241144614E1,6.685830590E1
1.220345958E0,2.141884912E1,5.524010573E1,3.112833314E1,6.692689671E1
1.230387958E0,1.831010324E1,5.452942111E1,2.724574920E1,6.364784754E1
1.240428958E0,1.767598323E1,5.138117729E1,2.571138134E1,6.011273487E1
1.250469958E0,1.630789264E1,4.630109762E1,2.234717179E1,5.393639857E1
1.260511958E0,1.355363070E1,3.850568327E1,1.765531449E1,4.447582129E1
1.270552958E0,1.041319877E1,3.093639478E1,1.187719422E1,3.473561534E1
1.280593958E0,1.028082365E1,2.404611538E1,6.925636346E0,2.705319646E1
1.290635958E0,1.207387116E1,1.791998520E1,4.342403129E0,2.203997957E1
1.300676958E0,1.429744214E1,1.176300745E1,2.442227612E0,1.867484061E1
1.310717958E0,1.554646120E1,5.985393544E0,1.673185144E0,1.674266826E1
1.320759958E0,1.641441488E1,8.852286887E-1,1.913979917E0,1.654931916E1
1.330800958E0,1.613216861E1,-3.857740288E0,1.824615166E0,1.668706819E1
1.340846208E0,1.530235515E1,-7.836727855E0,3.614677380E0,1.756821759E1
1.350887208E0,1.491304987E1,-1.132325473E1,4.892245468E0,1.935327414E1
1.360928208E0,1.438915338E1,-1.451518193E1,4.500131772E0,2.092819695E1
1.370970208E0,1.407957372E1,-1.704488506E1,4.063865457E0,2.247837862E1
1.381011208E0,1.364179970E1,-1.912170613E1,3.612337325E0,2.376525458E1
1.391052208E0,1.319157111E1,-2.135503962E1,3.089480470E0,2.529031742E1
1.401094208E0,1.301461332E1,-2.462726546E1,3.314131665E0,2.805112890E1
1.411135208E0,1.159116246E1,-2.922534044E1,3.681542630E0,3.165484681E1
1.421176208E0,7.129145764E0,-3.428907831E1,2.880325859E0,3.514060170E1
1.431218208E0,1.397064126E0,-3.874581204E1,2.384404496E0,3.884424184E1
1.441259208E0,-3.923869958E0,-4.310657192E1,3.193719661E0,4.340245550E1
1.451300208E0,-7.415306743E0,-4.686485809E1,5.671044307E0,4.778558822E1
1.461342208E0,-9.240844892E0,-4.963487593E1,8.972557681E0,5.127885446E1
1.471383208E0,-9.118884253E0,-5.057206766E1,1.259780273E1,5.290928757E1
1.481425208E0,-6.362971648E0,-5.008685635E1,1.498637746E1,5.266661273E1
1.491466208E0,-1.099275373E0,-4.884433238E1,1.524185050E1,5.117901150E1
1.501507208E0,5.712441425E0,-4.695054085E1,1.422897710E1,4.939077912E1
1.511549208E0,1.232646152E1,-4.450996917E1,1.303923126E1,4.799062993E1
1.521590208E0,1.793342912E1,-4.126659817E1,1.246237654E1,4.668887269E1
1.531631208E0,2.184035151E1,-3.632306268E1,1.339866546E1,4.445098505E1
1.541673208E0,2.416194872E1,-2.936867440E1,1.516645416E1,4.094313293E1
1.551714208E0,2.656836097E1,-1.989264865E1,1.974789966E1,3.862091163E1
1.561755208E0,2.860063327E1,-8.856906188E0,2.799057455E1,4.098674511E1
1.571797208E0,2.637987246E1,-6.650424278E-1,4.005937735E1,4.796971613E1
1.581838208E0,2.008807195E1,5.811083953E0,5.219445950E1,5.622775946E1
1.591880208E0,1.893403390E1,1.279423877E1,5.905479648E1,6.332186963E1
1.601921208E0,2.003697196E1,2.004236544E1,6.282188622E1,6.891854645E1
1.611962208E0,1.248593965E1,2.344050522E1,6.186447716E1,6.732436043E1
1.622004208E0,2.284421786E0,2.342690459E1,6.006232787E1,6.450985716E1
1.632045208E0,3.305519301E0,2.510716516E1,5.633985005E1,6.176953055E1
1.642086208E0,1.711375473E1,2.302552832E1,4.800278239E1,5.592247019E1
1.652128208E0,2.472709615E1,1.862155986E1,3.365266969E1,4.572410691E1
1.662169208E0,2.568625235E1,1.507388456E1,2.012592916E1,3.594521637E1
1.672210208E0,2.323537086E1,9.912003508E0,1.066098272E1,2.741873128E1
1.682252208E0,2.139020478E1,6.485312941E0,2.987377560E0,2.255048933E1
1.692293208E0,2.194860218E1,5.980062638E0,-2.616772846E0,2.289868526E1
1.702334208E0,2.429247261E1,6.646810699E0,-7.383554024E0,2.624540317E1
1.712376208E0,2.584520540E1,6.472896379E0,-9.485569578E0,2.828160285E1
1.722417208E0,2.539521070E1,6.369606484E0,-9.719772785E0,2.792781044E1
1.732458208E0,2.584075684E1,6.490181918E0,-9.503243372E0,2.828743201E1
1.742500208E0,2.809135950E1,6.980513050E0,-9.071789024E0,3.033396441E1
1.752541208E0,2.970249662E1,7.303021492E0,-9.851332798E0,3.213442370E1
1.762583208E0,3.011255718E1,7.371597637E0,-1.082473282E1,3.283719525E1
1.772624208E0,3.134731605E1,7.950099519E0,-1.065126698E1,3.404860928E1
1.782665208E0,3.303577441E1,8.937487251E0,-9.524672248E0,3.552408269E1
1.792707208E0,3.405540486E1,9.539217782E0,-9.013999237E0,3.649684176E1
1.802748208E0,3.516774408E1,9.481382972E0,-8.436539329E0,3.738772583E1
1.812789208E0,3.601628968E1,8.438145559E0,-7.263629969E0,3.769795410E1
1.822831208E0,3.710030265E1,6.021944489E0,-4.834556839E0,3.789550385E1
1.832872208E0,3.825208485E1,2.329578078E0,-1.747028754E0,3.836275588E1
1.842913208E0,3.879839255E1,-2.555971743E0,6.694231617E-1,3.888825508E1
1.852955208E0,3.771999992E1,-9.936454225E0,3.061312386E0,3.912675747E1
1.862996208E0,3.517424385E1,-1.816481747E1,5.577968913E0,3.997876638E1
1.873037208E0,3.089403287E1,-2.659311808E1,1.082562861E1,4.217617136E1
1.883079208E0,2.683514603E1,-3.498096998E1,1.708959170E1,4.728474878E1
1.893120208E0,2.351842288E1,-4.396668799E1,2.255675938E1,5.472653160E1
1.903162208E0,1.998073578E1,-5.312847034E1,2.514883476E1,6.208323488E1
1.913203208E0,1.646045702E1,-6.367696432E1,2.091821753E1,6.901647814E1
1.923244208E0,8.709704872E0,-7.189017860E1,9.586111867E0,7.304758914E1
1.933286208E0,-1.869268305E0,-7.667475871E1,-2.095894105E0,7.672617258E1
1.943327208E0,-1.429948516E1,-7.907173822E1,-9.227421439E0,8.088238602E1
1.953368208E0,-2.541011876E1,-7.883627787E1,-1.274453043E1,8.380486799E1
1.963410208E0,-3.149239248E1,-7.641243858E1,-1.522305755E1,8.403792617E1
1.973451208E0,-3.094153565E1,-7.199466601E1,-1.741434489E1,8.027371905E1
1.983493208E0,-2.269318896E1,-6.575737558E1,-1.822361591E1,7.191045435E1
1.993534208E0,-7.986662158E0,-5.884497499E1,-1.770723894E1,6.196825127E1
2.003575208E0,6.093275843E0,-5.174841050E1,-1.646607035E1,5.464574524E1
2.013617208E0,1.381350202E1,-4.567589461E1,-1.485454146E1,4.997757086E1
2.023658208E0,1.708204294E1,-4.180950512E1,-1.175941258E1,4.667027634E1
2.033699208E0,2.098509097E1,-3.918393690E1,-7.084812759E0,4.501054905E1
2.043741208E0,2.771231725E1,-3.493269537E1,-2.463813193E0,4.465799042E1
2.053782208E0,3.161875783E1,-2.888373908E1,1.135640377E0,4.284047046E1
2.063823208E0,3.145583569E1,-2.164426864E1,5.389934737E0,3.856157881E1
2.073865208E0,3.110235045E1,-1.439791719E1,1.075365641E1,3.592070920E1
2.083906208E0,3.170398685E1,-8.832743154E0,1.584138423E1,3.652546492E1
2.093947208E0,3.531801752E1,-4.009878992E0,2.051816975E1,4.104189056E1
2.103989208E0,4.210259564E1,2.949858901E0,2.655974685E1,4.986732778E1
2.114030208E0,4.856866189E1,1.133631741E1,3.030548957E1,5.835965822E1
2.124072208E0,4.932630199E1,1.939761285E1,3.370795863E1,6.281383547E1
2.134113208E0,4.569568627E1,2.263399175E1,3.753043787E1,6.331608873E1
2.144154208E0,4.112882373E1,2.368058488E1,4.018369383E1,6.218584639E1
2.154196208E0,3.851881144E1,2.462480262E1,4.016873899E1,6.085727015E1
2.164237208E0,3.955127302E1,2.562411516E1,3.626144706E1,5.946251775E1
2.174278208E0,4.068916457E1,2.676413042E1,2.971866534E1,5.705371031E1
2.184320208E0,3.967915396E1,2.589896236E1,2.383088405E1,5.303868913E1
2.194361208E0,3.607561085E1,2.293934738E1,1.827721031E1,4.649429829E1
2.204402208E0,3.158901187E1,1.826006394E1,1.182051599E1,3.835388122E1
2.214444208E0,2.791344510E1,1.426513745E1,8.067830867E0,3.236888102E1
2.224485208E0,2.456599600E1,1.029744027E1,7.822456555E0,2.776177700E1
2.234526208E0,2.094275011E1,5.897714546E0,8.439468784E0,2.333680467E1
2.244568208E0,1.767547569E1,1.981995606E0,9.073329180E0,1.996687381E1
2.254609208E0,1.528759093E1,-1.011826755E0,1.043776409E1,1.853863935E1
2.264651208E0,1.504328725E1,-4.398056343E0,1.104106577E1,1.917155508E1
2.274692208E0,1.532737188E1,-8.613762004E0,1.136729479E1,2.093658557E1
2.284733208E0,1.463495396E1,-1.378172708E1,1.127738683E1,2.304988790E1
2.294775208E0,1.306605010E1,-1.955320141E1,1.022533124E1,2.564384428E1
2.304816208E0,1.050938313E1,-2.471038714E1,1.021915775E1,2.873119474E1
2.314857208E0,7.814596728E0,-2.859749916E1,1.056964219E1,3.147383384E1
2.324899208E0,3.883060486E0,-3.118766601E1,1.204845215E1,3.365878591E1
2.334940208E0,6.156732166E-1,-3.461058629E1,1.501497854E1,3.773223181E1
2.344978208E0,-2.626856954E0,-3.868449580E1,2.032011520E1,4.377553740E1
2.355020208E0,-4.092476760E0,-4.252276720E1,2.930827266E1,5.180645658E1
2.365061208E0,-3.588761936E0,-4.498439821E1,3.990733571E1,6.024176905E1
2.375103208E0,-1.937484847E0,-4.572523108E1,4.851191115E1,6.669299909E1
2.385144208E0,2.591252089E0,-4.555240142E1,5.374238121E1,7.049808083E1
2.395185208E0,9.043307821E0,-4.489364475E1,5.245644751E1,6.963404081E1
2.405227208E0,1.403896481E1,-4.536466370E1,4.273069887E1,6.388237527E1
2.415268208E0,1.842595412E1,-4.591636954E1,2.956434797E1,5.763574800E1
2.425309208E0,2.392096157E1,-4.419443470E1,1.750977145E1,5.321609303E1
2.435351208E0,2.985239350E1,-3.929828505E1,1.065003322E1,5.048706580E1
2.445392208E0,3.279076672E1,-3.270702290E1,9.702551565E0,4.731937484E1
2.455433208E0,3.269126114E1,-2.599200092E1,1.283245852E1,4.369181455E1
2.465475208E0,3.191642321E1,-1.931039227E1,1.849722934E1,4.163768501E1
2.475516208E0,3.242462811E1,-1.224138453E1,2.306230497E1,4.163025239E1
2.485558208E0,3.422388653E1,-3.901257021E0,2.609397402E1,4.321330462E1
2.495599208E0,3.669909945E1,5.160611032E0,2.721011861E1,4.597658493E1
2.505640208E0,3.726550988E1,1.325040813E1,2.659214510E1,4.765956067E1
2.515682208E0,3.577115335E1,1.904975380E1,2.818255267E1,4.936319284E1
2.525723208E0,3.647295488E1,2.105282979E1,2.848483735E1,5.084175488E1
2.535764208E0,3.978888047E1,2.287825567E1,2.684950679E1,5.317391848E1
2.545806208E0,4.271700703E1,2.403177333E1,2.296071077E1,5.412451439E1
2.555847208E0,4.387549481E1,2.228137190E1,1.611004742E1,5.177887800E1
2.565888208E0,4.452879252E1,1.905854801E1,7.425744608E0,4.900187036E1
2.575930208E0,4.381750915E1,1.596133752E1,-4.326694000E-1,4.663609767E1
2.585971208E0,4.140273538E1,1.237674524E1,-6.298479198E0,4.366968239E1
2.596012208E0,3.877708997E1,8.772660674E0,-1.034500971E1,4.108091415E1
2.606054208E0,3.687957494E1,6.348515577E0,-1.396162953E1,3.994162987E1
2.616095208E0,3.440450468E1,4.666265202E0,-1.850548444E1,3.934332126E1
2.626136208E0,3.121508945E1,2.250569916E0,-2.331789846E1,3.902782678E1
2.636178208E0,2.768424126E1,-1.036283319E0,-2.633328185E1,3.822215104E1
2.646219208E0,2.433924565E1,-4.936755059E0,-2.533285599E1,3.547568212E1
2.656261208E0,2.141568460E1,-8.800157790E0,-2.132209875E1,3.147548601E1
2.666302208E0,1.994869304E1,-1.286586834E1,-1.733154364E1,2.939155196E1
2.676343208E0,1.872887264E1,-1.602144105E1,-1.419890487E1,2.844408802E1
2.686385208E0,1.847360425E1,-1.850636737E1,-1.302220534E1,2.921194138E1
2.696426208E0,1.873034146E1,-2.127866563E1,-1.344015496E1,3.137268027E1
2.706467208E0,2.055028967E1,-2.532265143E1,-1.407179575E1,3.551853765E1
2.716509208E0,2.162055935E1,-2.978782621E1,-1.354919033E1,3.922172530E1
2.726550208E0,2.237753755E1,-3.431766885E1,-1.201593929E1,4.269472308E1
2.736591208E0,2.291704844E1,-3.873072623E1,-9.653450741E0,4.602661594E1
2.746633208E0,2.205629620E1,-4.000709856E1,-6.359037641E0,4.612467341E1
2.756674208E0,2.241373883E1,-3.875468578E1,-2.327747315E0,4.482989812E1
2.766716208E0,2.390200958E1,-3.472350772E1,1.499529564E0,4.218147270E1
2.776757208E0,2.646476234E1,-3.094992758E1,5.363353879E0,4.107368047E1
2.786798208E0,2.829849594E1,-2.724428038E1,1.134589281E1,4.088746715E1
2.796840208E0,2.886082735E1,-2.419036151E1,1.938985827E1,4.235667066E1
2.806881208E0,2.700605780E1,-2.136257551E1,3.039145065E1,4.592741081E1
2.816922208E0,2.389021224E1,-1.930986485E1,4.073202232E1,5.101676944E1
2.826964208E0,1.824494421E1,-1.789591338E1,4.828827620E1,5.463423216E1
2.837005208E0,1.255244705E1,-1.597948143E1,5.132446866E1,5.520062352E1
2.847046208E0,9.717519268E0,-1.369309265E1,5.135203945E1,5.402742750E1
2.857088208E0,9.360070204E0,-1.195733966E1,5.061821388E1,5.284687751E1
2.867129208E0,9.871393425E0,-1.103461863E1,4.895651004E1,5.114633019E1
2.877170208E0,1.054859689E1,-1.247853591E1,4.605895741E1,4.887140587E1
2.887212208E0,1.082354818E1,-1.575854907E1,4.213513890E1,4.626933103E1
2.897253208E0,1.045136939E1,-1.987091338E1,3.780959096E1,4.397328154E1
2.907295208E0,8.465721613E0,-2.465268448E1,3.369669689E1,4.260153372E1
2.917336208E0,4.634078618E0,-2.964985765E1,3.039891170E1,4.271630339E1
2.927377208E0,-2.247277933E-1,-3.452807038E1,2.735688138E1,4.405266287E1
2.937419208E0,-5.382828616E0,-3.874474785E1,2.466221310E1,4.624235164E1
2.947460208E0,-9.071698392E0,-4.116108165E1,2.203678053E1,4.756206525E1
2.957501208E0,-1.058211547E1,-4.327135581E1,1.898548121E1,4.842354694E1
2.967543208E0,-1.094402655E1,-4.509905509E1,1.638395907E1,4.921514607E1
2.977584208E0,-9.049602349E0,-4.710229247E1,1.388522747E1,4.993316333E1
2.987626208E0,-7.041661477E0,-4.887688499E1,1.320670838E1,5.111704246E1
2.997667208E0,-5.442901155E0,-5.142258493E1,1.495917973E1,5.383014464E1
3.007708208E0,-4.610754075E0,-5.366429047E1,1.726342825E1,5.656095013E1
3.017750208E0,-2.847509238E0,-5.659548097E1,1.827759155E1,5.954180991E1
3.027791208E0,1.579552218E0,-5.878177829E1,1.686344128E1,6.117326291E1
3.037832208E0,8.891752669E0,-5.954178535E1,1.363294117E1,6.172636837E1
3.047874208E0,1.776369497E1,-5.874136233E1,1.058954377E1,6.227547627E1
3.057915208E0,2.636634668E1,-5.592044565E1,9.301313288E0,6.252035595E1
3.067956208E0,3.408501750E1,-5.107956388E1,1.179699030E1,6.253062644E1
3.077998208E0,4.090307911E1,-4.341210531E1,1.978504585E1,6.284203058E1
3.088039208E0,4.678411506E1,-3.311292257E1,3.134630097E1,6.532847501E1
3.098081208E0,4.856960212E1,-2.107769917E1,4.289096403E1,6.813890554E1
3.108122208E0,4.655935277E1,-1.086651235E1,4.961377450E1,6.890124121E1
3.118163208E0,4.455628847E1,-2.144925347E0,4.725954982E1,6.498714178E1
3.128205208E0,4.421329080E1,8.358591267E0,3.873360306E1,5.937148421E1
3.138246208E0,4.529293473E1,1.837434660E1,3.185281018E1,5.834096387E1
3.148287208E0,4.587200555E1,2.509129348E1,3.182601590E1,6.121036832E1
3.158329208E0,4.609083642E1,2.857044760E1,3.575770241E1,6.495574617E1
3.168370208E0,4.702286857E1,2.972580362E1,3.580714881E1,6.615833640E1
3.178411208E0,4.486602250E1,2.819898335E1,3.253426808E1,6.218216172E1
3.188453208E0,4.160164362E1,2.331442989E1,2.690393267E1,5.475473483E1
3.198494208E0,3.989702122E1,1.836864673E1,1.976367778E1,4.816411989E1
3.208535208E0,3.958693168E1,1.441576055E1,1.355285887E1,4.425629103E1
3.218577208E0,3.917038305E1,1.033177980E1,7.756307005E0,4.124590744E1
3.228618208E0,3.788170116E1,5.994614019E0,1.278970250E0,3.837439830E1
3.238659208E0,3.573908488E1,2.124688134E0,-5.269472739E0,3.618789619E1
3.248701208E0,3.201029441E1,-8.434462398E-1,-9.675885923E0,3.345135450E1
3.258742208E0,2.836015834E1,-2.778727271E0,-1.229933980E1,3.103697256E1
3.268784208E0,2.555152315E1,-3.984067628E0,-1.419628882E1,2.950063976E1
3.278825208E0,2.261601974E1,-5.850865484E0,-1.411543352E1,2.729400007E1
3.288866208E0,2.004466222E1,-8.437718713E0,-1.219731056E1,2.493507501E1
3.298908208E0,1.755533880E1,-1.061711223E1,-9.105316374E0,2.244593011E1
3.308949208E0,1.517997994E1,-1.161253286E1,-6.008049166E0,2.003445446E1
3.318990208E0,1.430865126E1,-1.146614314E1,-3.945418117E0,1.875569949E1
3.329032208E0,1.532258886E1,-9.763130473E0,-3.176368926E0,1.844423394E1
3.339073208E0,1.773910977E1,-6.972863722E0,-3.411308004E0,1.936320909E1
3.349114333E0,2.019798791E1,-5.002332167E0,-2.795543278E0,2.099516861E1
3.359156333E0,2.212041209E1,-5.112660940E0,-9.344356397E-1,2.272278818E1
3.369197333E0,2.328038740E1,-6.575626110E0,1.749791271E0,2.425442364E1
3.379238333E0,2.273840197E1,-8.606797970E0,4.307964783E0,2.469150574E1
3.389280333E0,2.108433693E1,-1.133952286E1,6.599938248E0,2.483330882E1
3.399321333E0,1.825306833E1,-1.421088347E1,7.800515463E0,2.441253272E1
3.409363333E0,1.396897247E1,-1.820116377E1,1.042301156E1,2.520027231E1
3.419404333E0,9.354341687E0,-2.412809100E1,1.581691481E1,3.032891818E1
3.429445333E0,5.626601960E0,-3.064456025E1,2.077437603E1,3.744759567E1
3.439487333E0,4.960212334E0,-3.754596807E1,2.663445789E1,4.630008393E1
3.449528333E0,7.202201461E0,-4.489377105E1,3.574794224E1,5.783803039E1
3.459569333E0,6.947742915E0,-5.037636837E1,4.464714485E1,6.767139103E1
3.469611333E0,4.166035318E0,-5.317720805E1,4.997367764E1,7.309267927E1
3.479652333E0,2.069900308E0,-5.487041669E1,4.934396526E1,7.382326207E1
3.489693333E0,1.843231823E0,-5.606007716E1,4.281277039E1,7.056247631E1
3.499735333E0,4.602352211E0,-5.591081879E1,3.205109394E1,6.461016891E1
3.509776333E0,1.028558913E1,-5.432200400E1,1.992690632E1,5.876865710E1
3.519818333E0,1.604197180E1,-5.069814766E1,1.104042140E1,5.430964868E1
3.529859333E0,1.947218824E1,-4.524023495E1,6.661992994E0,4.970137949E1
3.539900333E0,2.437560130E1,-3.810340185E1,3.806898748E0,4.539307931E1
3.549942333E0,3.371001919E1,-2.828207462E1,3.129169031E0,4.411386219E1
3.559983333E0,4.290905766E1,-1.429933547E1,8.657835392E0,4.605015024E1
3.570024333E0,4.826513058E1,-1.262355387E0,1.897104794E1,5.187501355E1
3.580066333E0,5.070029943E1,8.945361112E0,3.225030624E1,6.075049054E1
3.590107333E0,5.430272222E1,1.795044218E1,4.897179700E1,7.529436178E1
3.600148333E0,5.495025692E1,2.642419202E1,6.613725749E1,8.995501924E1
3.610190333E0,5.399820391E1,3.304665725E1,7.684866893E1,9.956709043E1
3.620231333E0,5.230670733E1,3.744921068E1,7.495868511E1,9.877874005E1
3.630273333E0,5.053744746E1,3.819426992E1,6.252321512E1,8.900555196E1
3.640314333E0,4.859505856E1,3.595030502E1,4.867786448E1,7.761081521E1
3.650355333E0,4.676920232E1,3.173858131E1,3.784733356E1,6.802291149E1
3.660397333E0,4.427156181E1,2.571179299E1,3.002761351E1,5.935254887E1
3.670438333E0,3.999222324E1,1.733750312E1,2.288847894E1,4.923260508E1
3.680479333E0,3.392457926E1,7.277317132E0,1.628795130E1,3.832928097E1
3.690521333E0,2.639831692E1,-3.309628724E0,1.255458362E1,2.941840153E1
3.700562333E0,1.923588471E1,-1.259267823E1,1.047883376E1,2.526659381E1
3.710603333E0,1.411618314E1,-1.957479050E1,8.171444698E0,2.547963025E1
3.720645333E0,1.112781506E1,-2.388024156E1,6.738776291E0,2.719384693E1
3.730686333E0,9.756795015E0,-2.687226415E1,6.458596428E0,2.930916405E1
3.740727333E0,9.071258097E0,-2.929430717E1,8.657014443E0,3.186515425E1
3.750769333E0,9.150360399E0,-3.068087613E1,1.202481887E1,3.420002229E1
3.760810333E0,9.468797425E0,-3.170602401E1,1.387763662E1,3.588201334E1
3.770852333E0,9.976723999E0,-3.405094928E1,1.212652768E1,3.749739781E1
3.780893333E0,8.988269734E0,-3.913609498E1,9.807157084E0,4.133525436E1
3.790934333E0,5.401881768E0,-4.721205640E1,9.047486826E0,4.837370788E1
3.800976333E0,-1.053277082E0,-5.476289809E1,9.560560119E0,5.560115745E1
3.811017333E0,-8.060755152E0,-5.935105385E1,1.400470129E1,6.151142191E1
3.821058333E0,-1.237025015E1,-6.131206964E1,2.243102554E1,6.644805399E1
3.831100333E0,-1.310704025E1,-6.191414107E1,3.060515703E1,7.029815791E1
3.841141333E0,-1.132835351E1,-6.139907154E1,3.561284349E1,7.187803698E1
3.851182333E0,-6.774344904E0,-5.973906572E1,3.559437097E1,6.986849767E1
3.861224333E0,5.796999764E-1,-5.723227550E1,3.037488198E1,6.479585531E1
3.871265333E0,8.555399190E0,-5.355608891E1,2.258537566E1,5.874988263E1
3.881307333E0,1.483176656E1,-4.902949265E1,1.641470841E1,5.378954453E1
3.891348333E0,2.039045252E1,-4.394192854E1,1.336673264E1,5.025269326E1
3.901389333E0,2.604810846E1,-3.649053395E1,1.327368005E1,4.675739091E1
3.911431333E0,3.196804243E1,-2.561052623E1,1.515823064E1,4.367638660E1
3.921472333E0,3.826558256E1,-1.133226178E1,1.790822645E1,4.374219405E1
3.931513333E0,4.630138764E1,4.607622306E0,1.854530632E1,5.008969023E1
3.941555333E0,5.362589064E1,2.038133554E1,1.914978797E1,6.048015678E1
3.951596333E0,5.845816531E1,3.410010098E1,2.151888094E1,7.101574624E1
3.961637333E0,5.784256577E1,4.460742120E1,2.248050701E1,7.642615806E1
3.971679333E0,5.341660242E1,5.093001549E1,2.249311829E1,7.715659571E1
3.981720333E0,4.780851917E1,5.406123221E1,2.112664036E1,7.519711608E1
3.991761333E0,4.258086514E1,5.465672669E1,1.935150872E1,7.193725556E1
4.001803333E0,3.941594506E1,5.356555673E1,1.929806751E1,6.924811190E1
4.011844333E0,3.716325377E1,4.997161942E1,2.068688063E1,6.562177389E1
4.021885333E0,3.562770244E1,4.301194058E1,1.959098027E1,5.918755546E1
4.031927333E0,3.383127173E1,3.428715808E1,1.459368899E1,5.033030811E1
4.041968333E0,3.109055077E1,2.527388098E1,9.976822232E0,4.129077850E1
4.052010333E0,2.720909886E1,1.592779790E1,7.999403826E0,3.252722349E1
4.062051333E0,2.298286002E1,7.147234125E0,7.164414999E0,2.511222118E1
4.072092333E0,1.904077131E1,-5.828545493E-1,6.842747387E0,2.024139035E1
4.082134333E0,1.522891061E1,-6.984599084E0,7.118969854E0,1.820395766E1
4.092175333E0,1.259562289E1,-1.202645024E1,7.567275878E0,1.898812486E1
4.102216333E0,1.163369745E1,-1.561734700E1,7.633598506E0,2.091688958E1
4.112258333E0,1.129057815E1,-1.857850096E1,7.752541398E0,2.308115576E1
4.122299333E0,1.083005262E1,-2.162909862E1,8.304289345E0,2.557477602E1
4.132340333E0,1.022265672E1,-2.583816769E1,9.996848946E0,2.953050302E1
4.142382333E0,8.733026492E0,-3.213637675E1,1.169136503E1,3.529448226E1
4.152423333E0,6.431768818E0,-4.141268033E1,1.145740506E1,4.344709280E1
4.162465333E0,1.554032046E0,-5.177620583E1,1.101134086E1,5.295696491E1
4.172506333E0,-6.915791389E0,-5.904606308E1,1.144914996E1,6.054212394E1
4.182547333E0,-1.351314692E1,-6.243373868E1,1.493798123E1,6.560274498E1
4.192589333E0,-1.445086022E1,-6.435291181E1,2.144077150E1,6.935294732E1
4.202630333E0,-1.162883490E1,-6.475478860E1,2.787912428E1,7.145388736E1
4.212671333E0,-6.896734144E0,-6.336555097E1,3.086867467E1,7.082113433E1
4.222713333E0,-1.580466138E0,-6.084152315E1,2.955096252E1,6.765684148E1
4.232754333E0,4.879381594E0,-5.723389868E1,2.462894011E1,6.249889770E1
4.242795333E0,1.372646271E1,-5.170207249E1,1.827193613E1,5.652772530E1
4.252837333E0,2.247222736E1,-4.403967060E1,1.337170862E1,5.121812355E1
4.262878333E0,2.940018856E1,-3.355733201E1,1.150027217E1,4.607300597E1
4.272920333E0,3.575828480E1,-2.074120126E1,1.173574890E1,4.297185315E1
4.282961333E0,4.229916967E1,-5.208956981E0,1.412982118E1,4.489994248E1
4.293002333E0,4.885801486E1,1.201160767E1,1.693136838E1,5.308536117E1
4.303044333E0,5.314364036E1,2.849510038E1,1.777408547E1,6.286601125E1
4.313085333E0,5.441244405E1,4.136294157E1,1.671058921E1,7.036228247E1
4.323126333E0,5.422710135E1,5.057249801E1,1.630458779E1,7.592098300E1
4.333168333E0,5.344525845E1,5.713878086E1,1.806894536E1,8.029771301E1
4.343212583E0,5.130710476E1,5.887273757E1,1.855338834E1,8.026609775E1
4.353253583E0,4.696190784E1,5.570913663E1,1.565031828E1,7.452423199E1
4.363295583E0,4.130903960E1,4.862367717E1,9.117938758E0,6.445025633E1
4.373336583E0,3.618962220E1,3.911530228E1,1.177797047E0,5.330180891E1
4.383377583E0,3.159370836E1,2.935051529E1,-4.992746826E0,4.341131968E1
4.393419583E0,2.767309881E1,2.057162967E1,-6.862075358E0,3.515793542E1
4.403460583E0,2.401723247E1,1.233775483E1,-5.960770919E0,2.765101155E1
4.413501583E0,2.077812994E1,4.704165099E0,-3.818240592E0,2.164344737E1
4.423543583E0,1.817839120E1,-1.984742628E0,-1.225060092E0,1.832740795E1
4.433584583E0,1.616172745E1,-7.636991646E0,1.531626685E0,1.794076241E1
4.443626583E0,1.455074587E1,-1.249903040E1,4.699807169E0,1.974938362E1
4.453667583E0,1.260571168E1,-1.664335910E1,9.182261639E0,2.280831642E1
4.463708583E0,1.170894292E1,-2.034104121E1,1.307908472E1,2.686856451E1
4.473750583E0,1.140075373E1,-2.394433172E1,1.513055460E1,3.053263647E1
4.483791583E0,1.129436247E1,-2.921031777E1,1.634187900E1,3.532509444E1
4.493832583E0,1.009028979E1,-3.705349686E1,1.560945209E1,4.145395725E1
4.503874583E0,5.964765737E0,-4.543120033E1,1.315725965E1,4.767269528E1
4.513915583E0,-1.564143636E0,-5.405328936E1,1.042808227E1,5.507222109E1
4.523956583E0,-1.220586387E1,-6.095175486E1,9.471194783E0,6.287927372E1
4.533998583E0,-2.213050906E1,-6.432546731E1,1.116187626E1,6.893556889E1
4.544039583E0,-2.757163324E1,-6.547203146E1,1.471527014E1,7.254874939E1
4.554081583E0,-2.742189073E1,-6.542323294E1,1.742799814E1,7.304720815E1
4.564122583E0,-2.240377751E1,-6.471942464E1,1.626580438E1,7.039253913E1
4.574163583E0,-1.337629635E1,-6.280623439E1,1.135163244E1,6.521048950E1
4.584205583E0,-1.797358955E0,-5.972828346E1,5.034754393E0,5.996705008E1
4.594246583E0,1.054969266E1,-5.528951237E1,-9.604338223E-1,5.629519186E1
4.604287583E0,2.352604531E1,-4.706507611E1,-4.447362989E0,5.280506826E1
4.614329583E0,3.815917961E1,-3.276582484E1,-6.167361819E0,5.067305613E1
4.624370583E0,4.932664814E1,-1.265794953E1,-3.245107039E0,5.102815520E1
4.634411583E0,5.523233128E1,6.864880852E0,4.378229604E0,5.582925668E1
4.644453583E0,5.849548925E1,2.142305444E1,1.361109480E1,6.376465656E1
4.654494583E0,5.913611956E1,3.326280308E1,2.501670406E1,7.231410780E1
4.664536583E0,5.716390517E1,4.175169253E1,3.693738753E1,7.984539111E1
4.674577583E0,5.369609465E1,4.745858437E1,4.545359751E1,8.486234345E1
4.684618583E0,4.907618617E1,4.974557074E1,4.803263125E1,8.479520931E1
4.694660583E0,4.438196192E1,4.788457975E1,4.304505454E1,7.820209871E1
4.704701583E0,4.043853888E1,4.192515837E1,3.197276698E1,6.644736382E1
4.714742583E0,3.680952529E1,3.504865969E1,2.094660927E1,5.497372225E1
4.724784583E0,3.192296741E1,2.684475885E1,1.400088306E1,4.399706413E1
4.734825583E0,2.842702476E1,1.828042277E1,1.003263975E1,3.525511954E1
4.744866583E0,2.595658784E1,1.024190809E1,7.669567069E0,2.893895977E1
4.754908583E0,2.405794312E1,2.665118210E0,7.362632686E0,2.530011546E1
4.764949583E0,2.199122136E1,-4.239868110E0,7.962890888E0,2.376968510E1
4.774990583E0,2.082160516E1,-9.804722888E0,9.474472148E0,2.488850045E1
4.785032583E0,2.114359495E1,-1.403241125E1,1.191313705E1,2.803360496E1
4.795073583E0,2.205601553E1,-1.823655813E1,1.396689437E1,3.184515680E1
4.805114583E0,2.252744144E1,-2.361582345E1,1.523757502E1,3.601911198E1
4.815156583E0,2.180690075E1,-3.061949206E1,1.564887401E1,4.071831864E1
4.825197583E0,1.923639809E1,-3.916559067E1,1.528849608E1,4.623549088E1
4.835239583E0,1.404403434E1,-4.812507807E1,1.603859912E1,5.263548900E1
4.845280583E0,4.477438143E0,-5.664907888E1,1.852876923E1,5.977023406E1
4.855321583E0,-7.974869494E0,-6.535579349E1,2.020132082E1,6.886996188E1
4.865363583E0,-2.090492564E1,-7.154196990E1,2.056487029E1,7.731871224E1
4.875404583E0,-3.012543976E1,-7.380815889E1,2.065700837E1,8.235228251E1
4.885445583E0,-3.187110962E1,-7.497291490E1,2.034896536E1,8.396895848E1
4.895487583E0,-2.700830547E1,-7.537252765E1,1.884592571E1,8.225348263E1
4.905528583E0,-1.712267758E1,-7.470402718E1,1.454156808E1,7.800855701E1
4.915570583E0,-3.825463657E0,-7.278404480E1,8.214842148E0,7.334599499E1
4.925611583E0,1.060932724E1,-6.896970956E1,1.839404090E0,6.980517222E1
4.935652583E0,2.657017828E1,-6.116739550E1,-1.559950597E0,6.670725666E1
4.945694583E0,4.471791019E1,-4.623958491E1,-2.181805490E0,6.436265206E1
4.955735583E0,5.973636665E1,-2.182601647E1,-2.859162154E0,6.366304504E1
4.965776583E0,6.579732376E1,5.909840502E0,-1.850987570E0,6.608812438E1
4.975818583E0,6.582045067E1,2.286642091E1,3.347230414E0,6.975965082E1
4.985859583E0,6.616927217E1,3.404720472E1,1.913272228E1,7.683518589E1
4.995900583E0,6.394125379E1,4.540755887E1,3.835054962E1,8.729888313E1
5.005942583E0,6.493251121E1,5.258006232E1,5.023073995E1,9.748856960E1
5.015983583E0,6.726860016E1,5.902978443E1,5.367750518E1,1.043592573E2
5.026024583E0,6.652185927E1,5.935827165E1,4.673073232E1,1.006594433E2
5.036066583E0,5.989147223E1,5.215583513E1,3.658383446E1,8.743910183E1
5.046107583E0,4.903048901E1,3.959365831E1,2.767420744E1,6.882956043E1
5.056148583E0,4.223513097E1,2.685297770E1,2.046351465E1,5.407073266E1
5.066190583E0,4.034900631E1,1.562505597E1,1.484031986E1,4.574297517E1
5.076231583E0,3.919707676E1,3.347336833E0,1.076978770E1,4.078729971E1
5.086272583E0,3.625023444E1,-9.236072980E0,7.671625289E0,3.818688748E1
5.096314583E0,3.192591441E1,-1.964677089E1,5.833045510E0,3.793789711E1
5.106355583E0,2.812570604E1,-2.713003982E1,5.330809447E0,3.943997884E1
5.116397583E0,2.556607570E1,-3.187739187E1,5.960007273E0,4.129544800E1
5.126438583E0,2.370228039E1,-3.511746738E1,7.507327884E0,4.302783498E1
5.136479583E0,2.206428583E1,-3.839233149E1,8.846969429E0,4.515609255E1
5.146521583E0,1.998402660E1,-4.244272583E1,8.942470833E0,4.775682234E1
5.156562583E0,1.597915048E1,-4.588831226E1,1.032994260E1,4.967673668E1
5.166603583E0,1.036081941E1,-4.897469254E1,1.301374559E1,5.172257401E1
5.176645583E0,4.056402363E0,-5.356672617E1,1.581303576E1,5.599911296E1
5.186686583E0,-2.994048648E0,-5.936284651E1,1.884821665E1,6.235516935E1
5.196728583E0,-1.096056598E1,-6.386159600E1,2.132930018E1,6.821566167E1
5.206769583E0,-1.775585853E1,-6.597034989E1,2.314338948E1,7.213164391E1
5.216810583E0,-2.097203764E1,-6.645942036E1,2.417895710E1,7.376518748E1
5.226852583E0,-1.891148352E1,-6.620473436E1,2.252224210E1,7.244282193E1
5.236893583E0,-1.155222234E1,-6.593433104E1,1.771436552E1,6.924296785E1
5.246934583E0,-5.881462795E-1,-6.547224664E1,1.049051182E1,6.630996783E1
5.256976583E0,1.224851463E1,-6.457015692E1,2.743811792E0,6.577887030E1
5.267017583E0,2.628196668E1,-6.240848339E1,-4.145583512E0,6.784354379E1
5.277058583E0,3.720387321E1,-5.605777102E1,-6.603135506E0,6.760327856E1
5.287100583E0,4.275645936E1,-4.459126418E1,-4.417370281E0,6.193552146E1
5.297141583E0,4.559575969E1,-3.066921912E1,-8.501067301E-1,5.495722869E1
5.307183583E0,5.071534783E1,-1.571996797E1,6.014503323E0,5.343536421E1
5.317224583E0,5.999990767E1,-1.994613898E-1,1.808839904E1,6.266752656E1
5.327265583E0,7.002471099E1,1.822499000E1,3.054087508E1,7.853887865E1
5.337307583E0,7.554989007E1,3.481723625E1,3.585528075E1,9.058491589E1
5.347344875E0,7.460515310E1,4.740825621E1,3.415934263E1,9.476461531E1
5.357385875E0,6.881344857E1,5.372059214E1,3.189405644E1,9.294312003E1
5.367427875E0,6.037197770E1,5.474190893E1,3.493228606E1,8.866632334E1
5.377468875E0,4.814077668E1,5.159135429E1,3.545228597E1,7.896877102E1
5.387509875E0,3.741579034E1,4.403445020E1,2.912248323E1,6.470775225E1
5.397551875E0,3.090644066E1,3.586148113E1,1.894700653E1,5.099257750E1
5.407592875E0,2.811820757E1,2.822664068E1,9.841804175E0,4.103946821E1
5.417633875E0,2.756804773E1,2.092460503E1,4.459906436E0,3.489594700E1
5.427675875E0,2.781594629E1,1.340921851E1,2.154781998E0,3.095443578E1
5.437716875E0,2.801056969E1,5.835398430E0,2.976774219E0,2.876638792E1
5.447757875E0,2.676690668E1,-2.261642203E0,4.103299956E0,2.717387328E1
5.457799875E0,2.517783461E1,-1.022596858E1,4.373874013E0,2.752498071E1
5.467840875E0,2.290756660E1,-1.685875766E1,4.721069984E0,2.883162879E1
5.477881875E0,2.016206028E1,-2.201903540E1,5.154762647E0,3.029716443E1
5.487923875E0,1.843976291E1,-2.594858885E1,5.823802232E0,3.236156350E1
5.497964875E0,1.778292413E1,-2.964553305E1,6.631310899E0,3.520034523E1
5.508006875E0,1.666335774E1,-3.374875582E1,7.149491150E0,3.831137213E1
5.518047875E0,1.457160990E1,-3.840896564E1,7.775796944E0,4.180960984E1
5.528088875E0,1.121458891E1,-4.346867362E1,7.844170775E0,4.557218017E1
5.538130875E0,6.167343693E0,-4.771802299E1,9.371005667E0,4.901899217E1
5.548171875E0,1.025082977E0,-5.434924735E1,1.326367664E1,5.595370050E1
5.558212875E0,-8.396183601E0,-6.364631088E1,1.795069945E1,6.666015600E1
5.568254875E0,-2.161399409E1,-7.099856242E1,2.094220983E1,7.711379097E1
5.578295875E0,-3.189294780E1,-7.360660303E1,2.171360726E1,8.310579324E1
5.588337875E0,-3.423365138E1,-7.437944590E1,2.091036355E1,8.450732609E1
5.598378875E0,-2.673507678E1,-7.542129343E1,1.849024894E1,8.212810200E1
5.608419875E0,-1.082734536E1,-7.566701214E1,1.342147194E1,7.760711335E1
5.618461875E0,9.040406433E0,-7.536363052E1,6.009912089E0,7.614147882E1
5.628502875E0,3.052370298E1,-7.238192008E1,-1.403727028E0,7.856722757E1
5.638543875E0,4.781678480E1,-6.163399863E1,-6.641164627E0,7.828984457E1
5.648585875E0,5.843280242E1,-4.166593493E1,-6.679680237E0,7.207676922E1
5.658626875E0,6.176985050E1,-1.721767145E1,-3.457083224E0,6.421770834E1
5.668667875E0,6.703604938E1,3.637211380E0,4.110391459E0,6.726036382E1
5.678709875E0,7.866139466E1,2.313154302E1,1.414268857E1,8.320275796E1
5.688750875E0,8.414879605E1,4.288821818E1,2.269290361E1,9.713592029E1
5.698791875E0,8.159646303E1,5.581592082E1,3.445556023E1,1.046928146E2
5.708833875E0,7.176778001E1,6.102619693E1,4.605795636E1,1.048625114E2
5.718874875E0,6.054161244E1,6.082291965E1,5.317266593E1,1.009556675E2
5.728915875E0,4.881458642E1,5.671704692E1,4.948039717E1,8.971062904E1
5.738957875E0,4.106259115E1,4.786042374E1,3.602827647E1,7.262777195E1
5.748998875E0,3.495424820E1,3.727855619E1,2.058970692E1,5.509470256E1
5.759040875E0,3.085566110E1,2.710732456E1,9.381765128E0,4.212951915E1
5.769081875E0,2.886455787E1,1.657151202E1,3.237217975E0,3.344035425E1
5.779122875E0,2.782975039E1,5.740330305E0,-2.404854548E-1,2.841661894E1
5.789164875E0,2.671360112E1,-3.728271239E0,-1.333247030E0,2.700544462E1
5.799205875E0,2.502920541E1,-1.152231734E1,-6.052371061E-1,2.756068272E1
5.809246875E0,2.324050472E1,-1.769270627E1,1.158184901E0,2.923173458E1
5.819288875E0,2.150490142E1,-2.263838418E1,2.745500468E0,3.134477622E1
5.829329875E0,1.992122516E1,-2.729012255E1,3.816672661E0,3.400254389E1
5.839370875E0,1.743801442E1,-3.140291137E1,4.359941560E0,3.618337021E1
5.849412875E0,1.454365787E1,-3.435186805E1,4.566911652E0,3.758224986E1
5.859453875E0,1.189195727E1,-3.781146207E1,6.517013036E0,4.016960007E1
5.869494875E0,9.637444573E0,-4.302802744E1,8.788223623E0,4.496136517E1
5.879536875E0,6.213956527E0,-4.961061700E1,1.008162422E1,5.100456570E1
5.889577875E0,4.523961514E-1,-5.807903652E1,1.324875571E1,5.957271753E1
5.899619875E0,-9.569906309E0,-6.605100872E1,1.774581185E1,6.905963146E1
5.909660875E0,-2.028484947E1,-7.106990780E1,2.154385323E1,7.698405371E1
5.919701875E0,-2.741786551E1,-7.329647607E1,2.352794214E1,8.171705339E1
5.929743875E0,-2.753396782E1,-7.344056550E1,2.334048976E1,8.183162290E1
5.939784875E0,-1.873303586E1,-7.302615227E1,1.906748841E1,7.776448201E1
5.949825875E0,-2.639164174E0,-7.163826184E1,1.117265852E1,7.255228491E1
5.959867875E0,1.682249907E1,-6.883737538E1,2.704488097E0,7.091470214E1
5.969908875E0,3.466113898E1,-6.132896108E1,-5.327642010E0,7.064714992E1
5.979949875E0,4.662703546E1,-4.582366545E1,-9.268028598E0,6.602866881E1
5.989991875E0,5.465936963E1,-2.389519874E1,-9.787702228E0,6.045185131E1
6.000032875E0,5.925408830E1,-1.158909956E0,-7.148839771E0,5.969502461E1
6.010074875E0,6.079953547E1,1.274817792E1,-1.455039854E0,6.213868919E1
6.020115875E0,5.906081677E1,1.793527216E1,6.576095057E0,6.207333640E1
6.030156875E0,5.794020491E1,1.897619817E1,2.560480298E1,6.612691871E1
6.040198875E0,4.854311657E1,2.033246686E1,5.370194186E1,7.519136875E1
6.050239875E0,3.631079756E1,2.140132384E1,6.846173621E1,8.039589546E1
6.060280875E0,2.569702292E1,2.280890536E1,6.384011567E1,7.249926565E1
6.070322875E0,2.122328782E1,2.017770977E1,4.662177296E1,5.505595001E1
6.080363875E0,1.677827775E1,1.640481726E1,2.900263402E1,3.730658674E1
6.090404875E0,1.127164487E1,1.210903398E1,1.554380890E1,2.269997086E1
6.100446875E0,7.903993054E0,8.005150470E0,5.121339962E0,1.236056889E1
6.110487875E0,5.373584753E0,4.898855746E0,-1.035886878E0,7.344880008E0
6.120528875E0,3.608198958E0,2.133712726E0,-3.947074049E0,5.757709897E0
6.130570875E0,1.911208629E0,-3.407728046E-1,-5.032749968E0,5.394202143E0
6.140611875E0,2.961474395E-1,-2.513280637E0,-4.974865456E0,5.581538245E0
6.150652875E0,-7.893860999E-1,-3.989968638E0,-4.891635604E0,6.361688379E0
6.160694875E0,-1.195129072E0,-4.628910849E0,-5.704171708E0,7.442628838E0
6.170735875E0,-1.156037512E0,-4.584822843E0,-6.303295550E0,7.879629307E0
6.180776875E0,-1.058481981E0,-4.253217303E0,-5.905307740E0,7.354107766E0
6.190818875E0,-5.255708393E-1,-3.999876745E0,-5.317132809E0,6.674364389E0
6.200859875E0,1.026352993E-1,-3.314126987E0,-4.897588654E0,5.914418511E0
6.210901875E0,2.176324895E-1,-2.747791407E0,-5.105885187E0,5.802394769E0
6.220942875E0,-3.793176502E-1,-2.528938896E0,-5.420826747E0,5.993728092E0
6.230983875E0,-9.600784577E-1,-2.295471854E0,-5.914518274E0,6.416577600E0
6.241025875E0,-6.664285102E-1,-1.591135553E0,-6.523256693E0,6.747497105E0
6.251066875E0,5.395516782E-1,-2.948031646E-1,-6.899282945E0,6.926624725E0
6.261107875E0,5.620976939E0,1.954758106E0,-3.312943511E0,6.811171390E0
6.271149875E0,9.780323042E0,5.196386052E0,2.129944780E0,1.127802339E1
6.281190875E0,2.510483329E0,4.433074148E0,-3.650159454E0,6.267243173E0
6.291231875E0,3.479143015E-1,1.503447783E-1,-1.096735343E0,1.160377665E0
6.301273875E0,7.138025053E-1,7.147501928E-1,-2.211800537E0,2.431551659E0
6.311314875E0,1.994510402E0,1.948021529E0,-1.740876313E0,3.286869325E0
6.321355875E0,1.660179329E0,7.938811469E-1,5.536716807E-1,1.921716683E0
6.331397875E0,5.140817915E-1,-1.564194506E-1,1.198500284E0,1.313449681E0
6.341438875E0,-6.389281780E-1,-1.208301972E0,6.982189447E-1,1.534839590E0
6.351479750E0,-9.176278183E-1,-1.416928872E0,-5.234240341E-1,1.767399491E0
6.361521750E0,-1.143444802E0,-1.125547498E0,-8.477310795E-1,1.814654559E0
6.371562750E0,-1.404193344E0,-1.295071144E0,-2.047057575E-1,1.921164402E0
6.381604750E0,-1.790560251E0,-1.201225671E0,3.353524357E-1,2.182088537E0
6.391645750E0,-1.804893823E0,-9.979390329E-1,1.418587142E-1,2.067280320E0
6.401686750E0,-1.350698337E0,-6.278903890E-1,-2.519337183E-1,1.510663079E0
6.411728750E0,-5.326284286E-1,-1.682559693E-1,-5.028967988E-1,7.516038215E-1
6.421769750E0,2.624389721E-1,3.151865584E-1,-5.160214591E-1,6.591622918E-1
6.431810750E0,8.116941047E-1,4.964695394E-1,-5.170423830E-1,1.082895262E0
6.441852750E0,8.726460654E-1,6.679449856E-1,3.518795907E-2,1.099499819E0
6.451893750E0,6.565806296E-1,4.600905025E-1,5.005614209E-1,9.451683077E-1
6.461934750E0,5.058908656E-1,1.382574141E-2,7.536885560E-1,9.078343232E-1
6.471976750E0,2.331463221E-1,-1.269120616E-1,7.403721070E-1,7.865206518E-1
6.482017750E0,8.640489042E-2,-3.225101960E-1,4.869356543E-1,5.904108426E-1
6.492058750E0,-1.247053224E-1,-3.778997004E-1,2.184326810E-1,4.539520207E-1
6.502100750E0,-2.702378422E-1,-4.247411603E-1,-4.988084257E-2,5.058869864E-1
6.512141750E0,-1.616130938E-1,-3.301875901E-1,-2.218392688E-1,4.293661583E-1
6.522182750E0,4.035324320E-2,-1.002510971E-1,-1.402828896E-1,1.770817772E-1
6.532224750E0,2.486436363E-1,1.601546520E-1,-4.607605934E-2,2.993261994E-1
6.542265750E0,2.830751118E-1,3.554580867E-1,-3.400623679E-2,4.556735613E-1
6.552306750E0,1.559806171E-1,3.986198938E-1,-8.114882827E-2,4.356752288E-1
6.562348750E0,2.737037793E-2,2.777392352E-1,1.891340375E-2,2.797247525E-1
6.572389750E0,-2.207106100E-1,1.723156911E-1,2.829286391E-1,3.980634190E-1
6.582431750E0,-4.722744919E-1,1.361845762E-1,5.048333967E-1,7.045893789E-1
6.592472750E0,-4.865636252E-1,1.494355363E-1,6.572480893E-1,8.312942871E-1
6.602513750E0,-3.755070198E-1,1.163484818E-1,5.118325138E-1,6.453797435E-1
6.612555750E0,-2.517065540E-1,8.771291256E-2,5.892356157E-1,6.467212345E-1
6.622596750E0,-2.650876147E-1,1.190767926E-1,6.637958014E-1,7.246209988E-1
6.632637750E0,-2.754506350E-1,-5.225130379E-2,6.068287182E-1,6.684641683E-1
6.642679750E0,-2.622657484E-1,-2.127813470E-1,4.774929857E-1,5.848579108E-1
6.652720750E0,-2.956270373E-1,-3.256881577E-1,2.827502990E-1,5.228918175E-1
6.662761750E0,-1.286763127E-1,-4.558828461E-1,-9.818352163E-1,1.090131714E0
6.672803750E0,3.640382910E-1,-3.034985590E-1,-1.708326618E0,1.772855066E0
6.682844750E0,-2.465351303E-1,-6.824548513E-1,7.615735263E-1,1.051911798E0
6.692885750E0,-1.482532293E-2,-5.722477001E-1,-1.335679471E-1,5.878159720E-1
6.702927750E0,2.649814877E-1,-5.330023581E-1,8.410751939E-1,1.030395159E0
6.712968750E0,1.804586698E-1,-6.184272552E-1,1.489638999E0,1.622973181E0
6.723009750E0,8.945099741E-2,-4.247972935E-1,1.127906265E0,1.208563926E0
6.733051750E0,1.847386855E-1,-4.250218266E-1,7.169317889E-1,8.536762413E-1
6.743092750E0,2.301743285E-1,-3.655182213E-1,4.373091656E-1,6.146731635E-1
6.753134750E0,2.740006717E-1,-3.745702958E-1,1.914343321E-1,5.020222884E-1
6.763175750E0,4.082501118E-1,-4.641057855E-1,-3.534788042E-1,7.120460652E-1
6.773216750E0,1.181934245E-1,-1.646879983E-1,-9.254686421E-1,9.474091143E-1
6.783258750E0,2.020949757E-1,-1.039915609E-1,-9.471507025E-1,9.740385399E-1