"Time (s)","Acceleration x (m/s^2)","Acceleration y (m/s^2)","Acceleration z (m/s^2)","Absolute acceleration (m/s^2)"
1.687041658E-3,3.901786194E0,5.740712128E0,7.567213898E0,1.026851681E1
1.172804163E-2,3.750301208E0,5.825286255E0,7.655829620E0,1.032523347E1
2.176904166E-2,3.737877045E0,5.852978668E0,7.783813477E0,1.043153087E1
3.181004163E-2,3.551364899E0,5.593717804E0,8.092621307E0,1.045908175E1
4.185104166E-2,3.551364899E0,5.307812347E0,8.329279175E0,1.049580660E1
5.189204164E-2,3.260669403E0,5.095404053E0,8.446485443E0,1.038933221E1
6.193204166E-2,2.642904053E0,4.608167267E0,8.510701904E0,1.003255672E1
7.197304163E-2,2.222278748E0,3.660338287E0,8.388406219E0,9.418171697E0
8.201404166E-2,1.560504913E0,3.699107666E0,8.009843445E0,8.959696709E0
9.205504163E-2,9.422904968E-1,3.843407593E0,7.683522034E0,8.642696578E0
1.020960417E-1,2.309696960E-1,3.555855560E0,7.332801361E0,8.152756072E0
1.121370416E-1,-2.424957275E-1,3.166515198E0,6.924001465E0,7.617573036E0
1.221780417E-1,-6.840774536E-2,3.815415802E0,7.282505951E0,8.221737668E0
1.322180416E-1,1.198707275E0,4.309089203E0,9.484726410E0,1.048642856E1
1.422590417E-1,1.309177551E0,4.298311615E0,1.127245880E1,1.213498068E1
1.523000416E-1,8.312214661E-1,3.754043427E0,1.243149857E1,1.301252965E1
1.623410417E-1,2.311193848E-1,3.645070038E0,1.338097412E1,1.387048738E1
1.723820416E-1,-8.587641907E-1,3.099005585E0,1.272279282E1,1.312291007E1
1.824230417E-1,-9.774673462E-1,2.398312683E0,1.133802246E1,1.163005157E1
1.924630416E-1,-5.834866333E-1,2.449955292E0,1.040935364E1,1.070968630E1
2.025040417E-1,-8.833131409E-1,2.988086243E0,1.061427750E1,1.106217828E1
2.125450416E-1,-1.445094910E0,2.983296204E0,1.108983856E1,1.157466522E1
2.225860417E-1,-6.239025879E-1,2.137255554E0,1.055080948E1,1.078316727E1
2.326270416E-1,5.433700562E-2,1.500629425E0,9.037456512E0,9.161356963E0
2.426680417E-1,-2.133064270E-1,1.237776031E0,7.713160400E0,7.814757354E0
2.527080416E-1,-1.326840820E0,1.040935364E0,5.490881653E0,5.744025968E0
2.627490417E-1,-3.313359833E0,1.453178101E0,3.179837494E0,4.816787982E0
2.727900416E-1,-5.060077515E0,2.370021515E0,1.087787933E0,5.692509905E0
2.828310417E-1,-6.988367615E0,1.809287567E0,1.049168243E0,7.294625242E0
2.928720416E-1,-8.113577728E0,2.988535309E0,6.159990234E0,1.061635373E1
3.029130417E-1,-3.529660034E0,2.931803284E0,8.598269806E0,9.745984512E0
3.129540416E-1,-9.442364502E-1,1.924697571E0,1.022089554E1,1.044331120E1
3.229940417E-1,-1.265169067E0,2.454895020E0,1.123383911E1,1.156833192E1
3.330350416E-1,-2.098037109E0,2.451452179E0,1.177032349E1,1.220458490E1
3.430760417E-1,-1.807042236E0,1.786983948E0,1.157962006E1,1.185522306E1
3.531170416E-1,-9.135502625E-1,1.630110168E0,1.158396103E1,1.173371153E1
3.631580416E-1,5.239105225E-3,1.708247681E0,1.259750336E1,1.271279782E1
3.731990416E-1,7.809260559E-1,1.146615601E0,1.373334137E1,1.380323288E1
3.832390417E-1,1.445244598E0,7.041357422E-1,1.312859894E1,1.322666433E1
3.932800416E-1,6.008505249E-1,3.047362976E0,1.355072113E1,1.390213961E1
4.033210417E-1,1.640887756E0,6.074368286E0,1.139834702E1,1.301970727E1
4.133620416E-1,2.570604401E0,5.046455841E0,9.165889435E0,1.077442586E1
4.234030416E-1,1.086889801E0,3.847598877E0,8.813073120E0,9.677582569E0
4.334440416E-1,1.475930786E0,3.348386993E0,8.078251190E0,8.868382572E0
4.434850416E-1,2.367177429E0,4.386777649E0,7.544610901E0,9.042593697E0
4.535250416E-1,3.669768677E0,5.674250336E0,6.428082733E0,9.326551701E0
4.635660417E-1,3.723057861E0,4.785847778E0,4.857099609E0,7.768971323E0
4.736070416E-1,2.187401276E0,3.723357239E0,4.413272552E0,6.174551651E0
4.836480416E-1,6.532415771E-1,2.957549744E0,5.718408508E0,6.471013901E0
4.936890416E-1,8.890013123E-1,2.468516693E0,7.412435760E0,7.863084757E0
5.037300416E-1,2.136207733E0,2.546953583E0,8.784781952E0,9.392696630E0
5.137700416E-1,5.239254913E0,3.094365234E0,8.749904480E0,1.065766000E1
5.238110417E-1,8.919501801E0,4.736450500E0,7.846533051E0,1.278904049E1
5.338520416E-1,1.025397675E1,6.055507507E0,7.113208008E0,1.387122700E1
5.438930416E-1,8.285869446E0,5.350922699E0,7.932005310E0,1.265720010E1
5.539340416E-1,4.533173218E0,3.831282806E0,1.152558243E1,1.296408260E1
5.639750416E-1,2.455044708E0,2.669249268E0,1.489597366E1,1.533108501E1
5.740160416E-1,2.946173401E0,3.159180450E0,1.442475357E1,1.505768490E1
5.840560416E-1,2.998863831E0,4.884342957E0,1.072235275E1,1.215807711E1
5.940970416E-1,2.074535980E0,5.452711029E0,5.362149353E0,7.923913350E0
6.041380416E-1,5.739065552E-1,4.392914886E0,1.398392029E0,4.645704489E0
6.141790416E-1,1.710942078E-1,1.898801422E0,-1.548529816E0,2.456148338E0
6.242200416E-1,9.086105347E-1,1.739382935E0,-1.486408997E0,2.461795646E0
6.342610416E-1,1.820813599E0,1.972148895E0,2.953208771E0,3.990761264E0
6.443010416E-1,4.289779358E0,7.686515808E-1,7.639812927E0,8.795440509E0
6.543420416E-1,8.065078583E0,1.124311981E0,9.516161041E0,1.252465133E1
6.643830416E-1,1.296483948E1,2.406395874E0,9.164093170E0,1.605797021E1
6.744240416E-1,1.497156647E1,3.923640747E0,9.317673798E0,1.806548655E1
6.844650416E-1,1.365969452E1,3.304977264E0,1.072190369E1,1.767680253E1
6.945060416E-1,1.027134064E1,1.786834259E0,1.326616287E1,1.687258998E1
7.045470416E-1,7.735014954E0,5.462141418E-1,1.453776855E1,1.647651422E1
7.145870416E-1,6.932084656E0,5.709127808E-1,1.311991699E1,1.484964515E1
7.246280416E-1,5.133125610E0,9.738748169E-1,9.712103577E0,1.102825311E1
7.346690416E-1,1.159189453E0,7.089257812E-1,5.584437103E0,5.747367546E0
7.447100416E-1,-2.983445892E0,-2.739303589E-2,2.504591675E0,3.895469064E0
7.547510416E-1,-7.320526886E0,-3.207080841E0,8.684939575E-1,8.039263845E0
7.647920416E-1,-6.961124268E0,-4.173171844E0,-7.599696350E-1,8.151697256E0
7.748320416E-1,-6.986271973E0,-2.286195831E0,3.359913025E0,8.082308024E0
7.848730416E-1,-5.052144012E0,-3.741619263E0,8.639284515E0,1.068462029E1
7.949140416E-1,-4.972659302E-1,-3.341501312E0,1.120539825E1,1.170358298E1
8.049550416E-1,6.147266693E0,-1.511407013E0,1.215442474E1,1.370413368E1
8.149960416E-1,1.072789124E1,1.521136780E0,1.520642807E1,1.867182268E1
8.250370416E-1,1.178349609E1,3.030298462E0,1.908845535E1,2.263631191E1
8.350780417E-1,9.000932465E0,2.566712494E0,2.101614670E1,2.300615614E1
8.451180416E-1,5.600154419E0,7.975415039E-1,2.035332504E1,2.112476372E1
8.551590416E-1,4.017196198E0,-3.179388428E-1,1.880644180E1,1.923333574E1
8.652000416E-1,5.092410278E-1,-1.184337158E0,1.607716736E1,1.612877215E1
8.752410416E-1,-6.750961304E0,-1.965712280E0,1.267159927E1,1.449168491E1
8.852820416E-1,-1.348006805E1,-1.175804901E0,1.033091675E1,1.702417671E1
8.953230417E-1,-1.536285278E1,2.309547272E0,1.034783157E1,1.866624956E1
9.053630416E-1,-1.439706116E1,1.092128906E0,1.319491104E1,1.955949368E1
9.154040416E-1,-1.293819489E1,-1.948498077E0,1.915012711E1,2.319312182E1
9.254450416E-1,-8.967851257E0,-5.132377167E0,2.620525589E1,2.816876085E1
9.354860416E-1,-4.951702881E0,-5.573509827E0,3.077764755E1,3.166775903E1
9.455270416E-1,1.074615326E0,-4.847519531E0,3.047737198E1,3.087917496E1
9.555680417E-1,5.515580292E0,-1.230441284E0,2.941787521E1,2.995575060E1
9.656090416E-1,7.410190430E0,2.165097656E0,2.620824966E1,2.732162002E1
9.756490416E-1,6.009403381E0,2.928659821E0,1.774380157E1,1.896134150E1
9.856898333E-1,1.941911774E0,2.327809296E0,8.901239777E0,9.403285969E0
9.957308333E-1,-2.102827148E0,1.086291046E0,5.051694946E0,5.578667590E0
1.005771833E0,-5.563630371E0,-1.050665131E0,5.244494019E0,7.717680846E0
1.015812833E0,-8.922794952E0,-2.864443359E0,7.045399017E0,1.172428901E1
1.025853833E0,-9.751621399E0,-2.372566223E0,9.270671539E0,1.366266962E1
1.035893833E0,-9.149423676E0,-2.404898987E0,1.158066788E1,1.495350665E1
1.045934833E0,-9.870025177E0,-3.996988220E0,1.498848129E1,1.838607852E1
1.055975833E0,-9.549541626E0,-5.652545471E0,1.804168213E1,2.118129622E1
1.066016833E0,-6.747518463E0,-6.328240356E0,1.917677170E1,2.129141151E1
1.076057833E0,-2.052382050E0,-5.768703918E0,1.666424652E1,1.775351596E1
1.086098833E0,3.233276367E0,-3.632346497E0,1.175984528E1,1.272564254E1
1.096139833E0,7.669301605E0,-2.821632385E-1,6.791526947E0,1.024805550E1
1.106179833E0,9.937534790E0,2.582579498E0,2.882406006E0,1.066454776E1
1.116220833E0,1.047955765E1,3.746558990E0,2.209405518E-1,1.113133628E1
1.126261833E0,9.640552368E0,3.845054169E0,-9.613009644E-1,1.042347308E1
1.136302833E0,7.889793091E0,2.672692108E0,-4.174818420E-1,8.340648009E0
1.146343833E0,5.819149017E0,6.060896301E-1,2.362387390E0,6.309573211E0
1.156384833E0,3.247796173E0,-1.906136169E0,6.674470367E0,7.663555948E0
1.166425833E0,8.768765259E-1,-4.040547638E0,1.070633606E1,1.147695820E1
1.176465833E0,-1.050365753E0,-5.107678528E0,1.389725052E1,1.484335609E1
1.186506833E0,-2.957849121E0,-5.547014923E0,1.622745483E1,1.740254396E1
1.196547833E0,-3.694766693E0,-6.197412415E0,1.716495529E1,1.861974521E1
1.206588833E0,-2.458936615E0,-6.568640442E0,1.629077316E1,1.773647927E1
1.216629833E0,1.002615051E0,-6.133944397E0,1.323742264E1,1.462394847E1
1.226670833E0,6.039041748E0,-4.848118286E0,8.723708954E0,1.166522070E1
1.236710833E0,1.144504990E1,-2.630479889E0,4.694387970E0,1.264697078E1
1.246751833E0,1.623658585E1,-1.844165039E-1,2.522554321E0,1.643240730E1
1.256792833E0,1.847143845E1,1.431622925E0,2.561473389E0,1.870306735E1
1.266833833E0,1.703128326E1,1.394500122E0,5.057832184E0,1.782108040E1
1.276874833E0,1.424153458E1,-4.647834778E-1,9.608668671E0,1.718615269E1
1.286915833E0,1.075049423E1,-2.632425842E0,1.534638702E1,1.892126811E1
1.296956833E0,3.515289917E0,-6.246959381E0,1.823373276E1,1.959211002E1
1.306996833E0,-3.170556793E0,-9.170978851E0,1.769021301E1,2.017679162E1
1.317037833E0,-6.710695038E0,-9.247918854E0,1.590008560E1,1.957984048E1
1.327078833E0,-6.939120026E0,-9.229806519E0,1.328083237E1,1.759889836E1
1.337119833E0,-2.614463196E0,-8.789571991E0,1.030008087E1,1.379070917E1
1.347160833E0,5.278173981E0,-6.492299194E0,7.690707092E0,1.136468411E1
1.357201833E0,1.376956604E1,-3.435805206E0,5.170547791E0,1.510431299E1
1.367242833E0,2.082439545E1,5.424719238E-1,3.322341156E0,2.109473091E1
1.377282833E0,2.388882294E1,3.885470123E0,3.729494476E0,2.448840273E1
1.387323833E0,2.264835251E1,5.031486969E0,6.981182556E0,2.422809614E1
1.397364833E0,1.780472488E1,3.217858429E0,1.011371841E1,2.072800379E1
1.407405833E0,1.474403961E1,1.393452301E0,1.207224564E1,1.910674038E1
1.417446833E0,1.284254379E1,2.012265472E0,1.400068542E1,1.910495579E1
1.427487833E0,9.204060059E0,1.594933319E0,1.367421432E1,1.656027389E1
1.437527833E0,4.284839630E0,6.152206421E-2,1.178993271E1,1.254456651E1
1.447568833E0,-8.502319336E-2,-1.640738068E0,7.667655029E0,7.841695225E0
1.457609833E0,-1.679058380E0,-1.274300079E0,1.555864563E0,2.619884019E0
1.467650833E0,-8.625064087E-1,-5.466632080E-1,-1.823657684E0,2.090092179E0
1.477691833E0,-1.078806610E0,-4.076023865E-1,-1.689237213E0,2.045357125E0
1.487732833E0,2.302212524E-1,-1.907034302E-1,3.513194275E-1,4.612970447E-1
1.497773833E0,4.901856537E0,6.427633667E-1,1.699416046E0,5.227748765E0
1.507813833E0,9.836644592E0,2.585273895E0,1.426982574E0,1.027032118E1
1.517854833E0,1.333322342E1,3.594774628E0,-1.356628876E0,1.387579523E1
1.527895833E0,1.422312286E1,4.298760681E0,-4.118535461E0,1.541878406E1
1.537936833E0,1.392599075E1,3.714525604E0,-4.181853790E0,1.500729223E1
1.547977833E0,1.194306427E1,2.282303925E0,-1.713935852E0,1.227938400E1
1.558018833E0,8.606951752E0,6.782395935E-1,1.229842529E0,8.720787811E0
1.568058833E0,6.005960541E0,-1.345402222E0,3.659140778E0,7.160375715E0
1.578099833E0,3.922892303E0,-2.735860748E0,4.980592804E0,6.905093970E0
1.588140833E0,2.243983612E0,-2.929258575E0,5.557493134E0,6.670963063E0
1.598181833E0,1.029858398E0,-3.072660370E0,6.209686890E0,7.004431550E0
1.608222833E0,6.189628601E-1,-3.301684113E0,7.100783844E0,7.855276201E0
1.618263833E0,5.743556213E-1,-3.767515411E0,7.788902893E0,8.671278166E0
1.628304833E0,1.536704407E0,-4.161645813E0,8.957672424E0,9.996031791E0
1.638344833E0,2.167492676E0,-3.872596893E0,1.063628174E1,1.152499546E1
1.648385833E0,9.815089417E-1,-2.796484680E0,1.454749832E1,1.484632594E1
1.658426833E0,4.637955322E0,-4.577481079E0,3.790357910E1,3.845965771E1
1.668467833E0,1.021894958E1,-6.652017059E0,2.128408951E1,2.452934422E1
1.678508833E0,9.763147430E0,-1.953437805E0,1.901450912E1,2.146360930E1
1.688549833E0,4.564757538E0,-2.885998535E-1,1.361134506E1,1.435928326E1
1.698589833E0,1.250948639E0,-8.583151245E-1,6.920259247E0,7.084600581E0
1.708630833E0,-1.666185150E0,-1.069226532E0,3.630849609E0,4.135515351E0
1.718671833E0,-3.110980682E0,-5.269042969E-1,3.101699982E0,4.424519377E0
1.728712833E0,-1.860780487E0,5.478607178E-2,3.775448914E0,4.209456026E0
1.738753833E0,1.369651794E-1,5.387297058E-1,3.628155212E0,3.670490349E0
1.748794833E0,5.188211060E-1,-5.074447632E-2,6.455176392E0,6.476191210E0
1.758835833E0,5.573958893E0,2.752326508E0,1.368723724E1,1.503279024E1
1.768875833E0,7.682324524E0,4.990621948E0,2.216141510E1,2.398025723E1
1.778916833E0,5.210514679E0,2.080523529E0,1.590307938E1,1.686374736E1
1.788957833E0,-2.555186462E-1,-9.816586304E-1,1.366253860E1,1.370014250E1
1.798998833E0,-4.623734894E0,-2.240091705E0,9.992021484E0,1.123554309E1
1.809039833E0,-6.665339355E0,-1.359772339E0,6.271358643E0,9.252333152E0
1.819080833E0,-1.593735809E0,-3.128494263E-1,5.237009583E0,5.483077417E0
1.829121833E0,3.979923706E0,8.005352783E-1,8.987310791E0,9.861663384E0
1.839161833E0,1.992955627E0,2.255060577E0,9.583820343E0,1.004523682E1
1.849202833E0,-1.866768036E0,4.793182526E0,8.630752258E0,1.004735319E1
1.859243833E0,-3.591780853E0,3.832180939E0,6.412964172E0,8.289306963E0
1.869284833E0,-6.097869415E0,3.309617615E0,7.731123047E0,1.038787003E1
1.879325833E0,-4.781057739E0,4.601730652E0,6.728358307E0,9.450145163E0
1.889366833E0,-1.312470703E0,6.475833435E0,3.823349304E0,7.633937249E0
1.899406833E0,-1.662293243E0,6.685996399E0,3.422782288E0,7.692932163E0
1.909447833E0,-1.249900818E0,5.189258881E0,3.913162537E0,6.618421324E0
1.919488833E0,-1.046324158E-1,4.036955109E0,2.969674530E0,5.012676062E0
1.929529833E0,2.942880249E-1,2.984194336E0,3.653602295E0,4.726608827E0
1.939570833E0,2.568658447E-1,1.644180908E0,4.895419922E0,5.170536445E0
1.949611833E0,-8.297245789E-1,3.249742126E-1,5.643564148E0,5.713481199E0
1.959652833E0,-1.695524139E0,-1.036893768E0,7.297474823E0,7.563272413E0
1.969692833E0,-2.944377136E-1,-3.062182159E0,9.879754944E0,1.034761861E1
1.979737292E0,-1.213227081E0,-4.254752197E0,1.089913513E1,1.176290707E1
1.989778292E0,-3.580853577E0,-4.684059448E0,9.981842651E0,1.159310605E1
1.999819292E0,-7.196285248E0,-4.425547028E0,8.902886353E0,1.227327883E1
2.009860292E0,-6.276148682E0,-3.757037201E0,8.437055054E0,1.116643492E1
2.019901292E0,-2.650837555E0,-3.857328644E0,9.421258392E0,1.051979247E1
2.029942292E0,9.768685913E-1,-4.645589447E0,1.023661285E1,1.128379441E1
2.039982292E0,4.166735229E0,-4.443809052E0,7.943082275E0,1.001007879E1
2.050023292E0,5.309159546E0,-3.541485443E0,2.693199463E0,6.926948648E0
2.060064292E0,5.180427246E0,1.414109344E0,-4.891977081E0,7.264156624E0
2.070105292E0,2.436483307E0,8.512049103E0,-9.405690765E0,1.291737007E1
2.080146292E0,-3.365451508E0,1.357347382E1,-1.223001755E1,1.857791120E1
2.090187292E0,-1.305839493E1,1.388332947E1,-1.211370941E1,2.258341141E1
2.100227292E0,-1.934577026E1,1.237431747E1,-8.781189423E0,2.458641592E1
2.110268292E0,-2.543899933E1,5.237308960E0,-1.177107193E1,2.851543839E1
2.120309292E0,-3.060775085E1,-1.374890900E0,-1.504895554E1,3.413496448E1
2.130350292E0,-1.677486649E1,3.421135712E0,2.928061066E0,1.736876095E1
2.140391292E0,-4.111799469E0,1.884880371E0,1.435963898E1,1.505519513E1
2.150432292E0,-2.188449097E0,-4.390070801E0,1.625095596E1,1.697514656E1
2.160473292E0,-3.699257355E0,-9.555678864E0,1.858849503E1,2.122563664E1
2.170513292E0,-7.088808746E0,-1.253777756E1,1.971220825E1,2.441348459E1
2.180554292E0,-9.188043365E0,-1.170999893E1,1.482636841E1,2.100869858E1
2.190595292E0,-7.370223541E0,-7.934849396E0,1.132425110E1,1.566909994E1
2.200636292E0,-3.888912964E0,-5.289849701E0,1.063972458E1,1.250239549E1
2.210677292E0,-1.277892609E0,-5.102589111E0,6.172713776E0,8.109982769E0
2.220718292E0,-1.223555603E0,-4.645589447E0,-7.397616577E-1,4.860641618E0
2.230759292E0,-3.407514038E0,-1.895508270E0,-5.319637756E0,6.595653825E0
2.240799292E0,-8.216114502E0,3.049009552E0,-8.004454651E0,1.186896335E1
2.250840292E0,-1.351973557E1,9.246871033E0,-1.060050613E1,1.951047421E1
2.260881292E0,-1.651530624E1,1.541838730E1,-9.196276245E0,2.439371854E1
2.270922292E0,-1.649629578E1,1.575623474E1,-6.578819275E0,2.374168424E1
2.280963292E0,-2.163136734E1,7.316784668E-1,-1.662023804E1,2.728889369E1
2.291004292E0,-2.019675064E1,-2.670446777E0,-1.720611969E1,2.666628165E1
2.301044292E0,-1.900747375E0,4.039350128E0,4.489164734E-1,4.486726651E0
2.311085292E0,3.926784210E0,7.349716187E-1,4.069736938E0,5.702856851E0
2.321126292E0,4.042194214E0,-6.942562866E0,5.697901154E0,9.849090860E0
2.331167292E0,2.536026306E0,-1.034004776E1,1.016042130E1,1.471673123E1
2.341208292E0,-2.844834137E0,-1.396790359E1,9.670190735E0,1.722521410E1
2.351249292E0,-1.031475037E1,-1.123533600E1,9.973609772E0,1.822360398E1
2.361290292E0,-8.909023590E0,-5.801485748E0,1.177122162E1,1.586157611E1
2.371330292E0,-2.789000244E0,-1.479822693E0,1.130568970E1,1.173827147E1
2.381371292E0,2.205363922E0,1.113833771E0,6.976093140E0,7.400684508E0
2.391412292E0,2.963537292E0,2.257605286E0,4.611909485E-1,3.753935535E0
2.401453292E0,3.017724609E0,3.231629791E0,-7.909402313E0,9.061387194E0
2.411494292E0,-1.479822693E0,5.468428345E0,-1.011341904E1,1.159201572E1
2.421535292E0,-4.496499481E0,6.851552124E0,-7.872728577E0,1.136407186E1
2.431575292E0,-4.811294861E0,7.231013031E0,-7.023993530E0,1.117016530E1
2.441616292E0,-6.836134186E0,5.005141754E0,-5.641468506E0,1.017891652E1
2.451657292E0,-9.988728333E0,-6.815327454E0,-1.170416107E1,1.682886712E1
2.461698292E0,-1.441397598E1,-8.688831482E0,-1.548664536E1,2.287126320E1
2.471739292E0,-4.087250519E0,-1.369801483E0,-3.865411835E0,5.789937958E0
2.481780292E0,3.969744873E0,-3.791615295E0,3.979175262E0,6.780048427E0
2.491821292E0,2.604583740E0,-7.903115387E0,4.527035980E0,9.472969125E0
2.501861292E0,-2.140399017E0,-1.090617050E1,6.772516479E0,1.301510055E1
2.511902292E0,-4.858147430E0,-1.555490341E1,5.084177399E0,1.707060270E1
2.521943292E0,-1.082938019E1,-1.431503174E1,2.760858765E0,1.816089067E1
2.531984292E0,-1.077189972E1,-9.763147430E0,9.415420532E-1,1.456843755E1
2.542025292E0,-8.066126404E0,-9.632618866E0,-1.045725403E0,1.260727104E1
2.552066292E0,-7.494764557E0,-1.141241776E1,-5.918242950E0,1.488087277E1
2.562107292E0,-6.085145874E0,-1.187645279E1,-1.297127609E1,1.861002780E1
2.572147292E0,-4.878505096E0,-1.021670425E1,-1.683384384E1,2.028692082E1
2.582188292E0,-5.071753235E0,-6.473288727E0,-2.001502853E1,2.163856546E1
2.592229292E0,-5.751190338E0,-9.550140381E-1,-2.297182983E1,2.370006768E1
2.602270292E0,-6.319708099E0,1.049617310E0,-2.424987213E1,2.508180028E1
2.612311292E0,-1.645049103E1,-6.963519287E0,-3.210119522E1,3.673684786E1
2.622352292E0,-2.170037384E1,-3.382516022E0,-2.664863388E1,3.453255460E1
2.632392292E0,-9.225764923E0,-3.818858643E0,-1.702170319E1,1.973415311E1
2.642433292E0,-2.311792603E0,-6.519093475E0,-9.436975708E0,1.170040492E1
2.652474292E0,-1.499880981E0,-7.216493225E0,-2.639461212E0,7.829059517E0
2.662515292E0,-2.458936615E0,-7.204518127E0,5.202431488E0,9.220452490E0
2.672556292E0,-8.359067230E0,-9.370064850E0,1.008991791E1,1.610833833E1
2.682597292E0,-1.694446381E1,-8.892857208E0,5.182822266E0,1.982572595E1
2.692638292E0,-1.867142258E1,-1.490001526E0,-1.651216278E0,1.880342099E1
2.702678292E0,-1.494686783E1,3.073708191E0,-7.911797333E0,1.718874856E1
2.712719292E0,-1.005519012E1,4.385879517E-2,-1.009216324E1,1.424642169E1
2.722760292E0,-6.436315613E0,-5.783972168E-1,-1.353919510E1,1.500235001E1
2.732801292E0,-6.146518250E0,1.310973816E0,-1.934606964E1,2.034130648E1
2.742842292E0,-6.437812500E0,2.501897278E0,-2.495131348E1,2.588963043E1
2.752883292E0,-7.487429810E0,-5.194198608E-2,-2.495954636E1,2.605845846E1
2.762924292E0,-7.293882294E0,-6.279890900E0,-3.395568878E1,3.529343493E1
2.772964292E0,-8.784931641E0,-2.822081451E0,-3.623365173E1,3.739006132E1
2.783005292E0,-3.114423523E0,-9.299262085E0,-2.359393616E1,2.555092430E1
2.793046292E0,2.100132751E0,-1.415980453E1,-1.584949081E1,2.135689540E1
2.803087292E0,2.752775574E0,-1.183573746E1,-1.001866608E1,1.574916266E1
2.813128292E0,-1.306333466E0,-8.530909882E0,-5.095404053E0,1.002227883E1
2.823169292E0,-6.645430756E0,-2.426603851E0,3.251688080E0,7.786117874E0
2.833210292E0,-1.486169495E1,2.152074738E0,1.359128677E1,2.025399907E1
2.843250292E0,-2.185096069E1,1.914668427E0,1.477218109E1,2.644518430E1
2.853291292E0,-2.303769287E1,-2.543211365E-1,7.733967133E0,2.430255583E1
2.863332292E0,-1.960443237E1,-2.799328766E0,1.343905334E0,1.984883099E1
2.873373292E0,-1.350401825E1,-3.194057922E0,-1.687590637E0,1.397885822E1
2.883414292E0,-8.233328705E0,-1.394051056E0,-6.199657745E0,1.040032865E1
2.893455292E0,-4.818479919E0,1.714384918E0,-1.182211578E1,1.288096603E1
2.903495292E0,-3.299139404E0,6.116131439E0,-1.866977600E1,1.992114255E1
2.913536292E0,-6.760840759E0,5.458249512E0,-2.391382095E1,2.544351171E1
2.923577292E0,-1.153216873E1,-2.188598785E0,-4.008169968E1,4.176509942E1
2.933618292E0,-1.231234634E1,5.177732849E-1,-3.994248917E1,4.180029189E1
2.943659292E0,-2.248474274E0,-7.165149994E0,-2.941069016E1,3.035430293E1
2.953700292E0,5.008434906E0,-1.471065903E1,-2.120475449E1,2.628934237E1
2.963741292E0,9.350305939E0,-1.742017456E1,-1.279329620E1,2.354907919E1
2.973781292E0,9.662556610E0,-1.683623886E1,-1.863175507E0,1.950116310E1
2.983822333E0,2.410736847E0,-1.262265106E1,1.752136414E1,2.172880975E1
2.993863333E0,-8.909772034E0,-5.324577484E0,3.635175613E1,3.780456768E1
3.003904333E0,-1.799333267E1,-6.685996399E0,3.477388733E1,3.972009326E1
3.013945333E0,-1.953632401E1,-1.269749542E1,2.724619125E1,3.585037355E1
3.023986333E0,-7.796986084E0,-1.717214035E1,1.905866730E1,2.681246343E1
3.034027333E0,2.203268280E0,-1.984737717E1,1.033331177E1,2.248444137E1
3.044067333E0,5.735473022E0,-1.700643494E1,-1.214574280E0,1.798859835E1
3.054108333E0,8.710686035E0,-7.725135498E0,-1.177361664E1,1.655813451E1
3.064149333E0,9.154662781E0,5.531746674E0,-1.428135178E1,1.784278791E1
3.074190333E0,3.476819916E0,5.765710144E0,-2.681209396E1,2.764453061E1
3.084231333E0,-1.041534119E0,3.043321381E0,-4.067267075E1,4.079966598E1
3.094272333E0,-1.570983124E0,6.330186310E0,-3.514810913E1,3.574813033E1
3.104313333E0,1.124581421E1,-6.027815094E0,-1.683099976E1,2.112073495E1
3.114353333E0,1.452025497E1,-9.604028320E0,-1.000594254E1,2.007969249E1
3.124394333E0,1.579425568E1,-1.036714142E1,-3.715573425E0,1.925465189E1
3.134435333E0,1.309821213E1,-8.697363739E0,4.444707184E0,1.633899382E1
3.144476333E0,3.268453217E0,-4.735851746E0,1.499446884E1,1.606067166E1
3.154517333E0,-3.567231903E0,1.767225037E0,3.003504181E1,3.029772210E1
3.164558333E0,-1.177092224E1,1.731150055E0,3.776646423E1,3.959617799E1
3.174599333E0,-1.754336838E1,-3.227737885E0,2.867946075E1,3.377424366E1
3.184639333E0,-1.102816681E1,-5.193450165E0,1.802446793E1,2.175945385E1
3.194680333E0,-1.791923676E0,-6.965016174E0,1.208856171E1,1.406612117E1
3.204721333E0,2.927013245E0,-7.810009003E0,6.819668427E0,1.077364955E1
3.214762333E0,6.889423370E0,-3.460503845E0,2.085163879E-1,7.712504154E0
3.224803333E0,1.076695999E1,4.823269958E0,-4.785249023E0,1.273145588E1
3.234844333E0,7.775430908E0,1.066921326E1,-1.648626663E1,2.112075815E1
3.244884333E0,5.506000214E0,3.511398010E0,-2.672138260E1,2.750778512E1
3.254925333E0,-2.414329376E0,9.716893616E0,-3.400029602E1,3.544385895E1
3.264966333E0,6.273603973E0,6.840624847E0,-2.267260208E1,2.449896202E1
3.275007333E0,1.472308319E1,-2.575693817E0,-1.289089325E1,1.973774319E1
3.285048333E0,1.518008286E1,-3.935615845E0,-8.258476410E0,1.772361194E1
3.295089333E0,1.599618576E1,-4.318669281E0,-3.883075104E0,1.701784756E1
3.305130333E0,1.443358521E1,-5.159021759E0,2.044149170E0,1.546358410E1
3.315170333E0,1.008333160E1,-4.135899353E0,1.167137924E1,1.596872985E1
3.325211333E0,4.521796875E0,-2.391427002E0,2.384885605E1,2.439125878E1
3.335252333E0,-1.616787872E0,-3.040327606E0,2.862946472E1,2.883580839E1
3.345293333E0,-1.991608429E0,-2.440674591E0,2.285402481E1,2.307010721E1
3.355334333E0,1.193019104E0,-1.006357269E0,1.734637802E1,1.741645429E1
3.365375333E0,2.933599548E0,-2.647245026E0,1.242805573E1,1.304110738E1
3.375416333E0,4.889582062E0,-3.878135376E0,6.655908966E0,9.124092881E0
3.385456333E0,7.373816071E0,-9.997709656E-1,2.566113739E0,7.871317879E0
3.395497333E0,9.158704376E0,6.183341675E0,-3.303330688E0,1.153375801E1
3.405538333E0,9.848170624E0,1.062340851E1,-1.521825348E1,2.101043817E1
3.415579333E0,5.186564484E0,3.010539551E0,-2.259341675E1,2.337576266E1
3.425620333E0,-3.680995331E0,8.416398010E0,-2.245899628E1,2.426503649E1
3.435661333E0,6.643634491E0,4.888683929E0,-1.560729446E1,1.765289637E1
3.445702333E0,1.521316406E1,-3.368295593E0,-7.300767975E0,1.720717842E1
3.455742333E0,1.365101257E1,-4.768483887E0,-3.010838928E0,1.477002823E1
3.465783333E0,1.161524597E1,-4.814588013E0,8.080197144E-1,1.259948779E1
3.475824333E0,8.097411346E0,-3.327580261E0,7.601941681E0,1.159441151E1
3.485865333E0,1.933678894E0,-2.171384583E0,1.813209412E1,1.836373769E1
3.495906333E0,-8.607251129E0,-3.237467651E0,2.724679001E1,2.875679980E1
3.505947333E0,-1.267339554E1,-3.580254822E0,2.634536453E1,2.945354667E1
3.515988333E0,-7.891589355E0,-2.687960358E0,2.090702362E1,2.250790861E1
3.526028333E0,-3.252735901E0,-3.130889282E0,1.692904587E1,1.752071210E1
3.536069333E0,-4.140390015E-1,-4.370760956E0,1.191013275E1,1.269355119E1
3.546110333E0,4.375401306E-1,-4.054468689E0,4.156107330E0,5.822661407E0
3.556151333E0,2.567011871E0,-2.378553772E-1,-6.426436157E0,6.924247743E0
3.566192333E0,-9.490264893E-2,1.003348526E1,-1.801054688E1,2.061697436E1
3.576233333E0,-2.605781250E0,1.472472977E1,-2.437546097E1,2.859669317E1
3.586273333E0,-5.686973877E0,1.982028351E0,-3.594370468E1,3.644475291E1
3.596314333E0,-1.396535889E1,5.918692017E0,-3.280098999E1,3.613816692E1
3.606355333E0,1.318607941E0,-1.093476105E0,-1.677037582E1,1.685763691E1
3.616396333E0,9.019194489E0,-9.400451660E0,-7.346273346E0,1.495600524E1
3.626437333E0,8.155340881E0,-1.360999786E1,-2.915936279E-1,1.586904703E1
3.636478333E0,6.824308777E0,-1.564905762E1,6.174510040E0,1.815457983E1
3.646519333E0,2.190395050E0,-1.309716431E1,1.377181137E1,1.913103060E1
3.656559333E0,-4.513713684E0,-1.183828217E1,2.483276001E1,2.787802908E1
3.666600333E0,-1.546568893E1,-1.114402588E1,2.811214050E1,3.396570757E1
3.676641333E0,-2.087379272E1,-5.923482056E0,2.666749466E1,3.437961800E1
3.686682333E0,-1.778227158E1,-1.771865387E0,2.719888962E1,3.254425119E1
3.696723333E0,-1.325014618E1,-1.005758514E0,2.452799377E1,2.789624352E1
3.706764333E0,-9.028175812E0,-1.246457977E0,1.932062256E1,2.136230493E1
3.716805333E0,-5.056634674E0,-2.241588593E0,1.414753006E1,1.519035485E1
3.726845333E0,2.544708252E-3,-3.160078583E0,9.808054047E0,1.030456342E1
3.736886333E0,4.085603943E0,-3.325334930E0,6.049370270E0,8.021526827E0
3.746927333E0,8.726253662E0,-2.520458679E0,3.483555908E0,9.728071581E0
3.756968333E0,1.465707047E1,8.400531006E-1,1.322200470E0,1.474054334E1
3.767009333E0,1.743289810E1,5.629343719E0,3.263214111E-1,1.832217052E1
3.777050333E0,1.778661255E1,5.056634674E0,-6.080355835E0,1.946545317E1
3.787091333E0,1.213556396E1,-1.235381012E0,-1.516212021E1,1.945990669E1
3.797131333E0,3.995042267E0,2.483335876E-1,-1.511122604E1,1.563237617E1
3.807172333E0,7.277715912E0,1.194665680E0,-6.093678131E0,9.566884976E0
3.817213333E0,9.974807281E0,-8.683442688E-1,5.066963196E-1,1.002534504E1
3.827254333E0,6.538253632E0,-3.431763611E0,3.729195099E0,8.272403406E0
3.837295333E0,3.191363525E0,-4.036506042E0,8.705446930E0,1.011251642E1
3.847336333E0,-5.438191223E-1,-3.414100342E0,1.745774643E1,1.779676181E1
3.857376333E0,-1.349877914E1,-4.276906128E0,3.043126785E1,3.356443099E1
3.867417333E0,-2.288396255E1,-4.118685150E0,2.716012024E1,3.575348152E1
3.877458333E0,-2.061812439E1,-4.093836823E0,1.955668167E1,2.871115378E1
3.887499333E0,-1.065544189E1,-4.072431335E0,1.687890015E1,2.037204970E1
3.897540333E0,6.608757019E-1,-1.888921967E0,1.501856873E1,1.515130983E1
3.907581333E0,7.133715363E0,-1.563498688E0,1.600262238E1,1.759029124E1
3.917622333E0,7.036268005E0,-4.029770050E0,1.424377991E1,1.639003905E1
3.927662333E0,4.441863098E0,-5.580395508E0,1.189231979E1,1.386716380E1
3.937703333E0,5.147196350E0,-2.610571289E0,6.029761047E0,8.346659871E0
3.947744333E0,2.358046417E0,6.103856964E0,-4.719685364E0,8.068016031E0
3.957785333E0,-3.172802124E0,5.978866882E0,-2.155053543E1,2.258847272E1
3.967826333E0,-2.172103088E1,1.507515106E0,-2.823174179E1,3.565258797E1
3.977867333E0,-9.655670929E0,2.849324799E0,-8.786578217E0,1.336243203E1
3.987905292E0,4.393513641E0,6.536756744E0,6.590045929E0,1.026941362E1
3.997945292E0,4.511468353E0,2.691403198E0,1.319955139E1,1.420651804E1
4.007986292E0,2.513872375E0,-4.026177521E0,1.493309647E1,1.566930215E1
4.018027292E0,1.413360901E0,-6.949897614E0,2.236708740E1,2.346455337E1
4.028068292E0,-6.948849792E0,-9.498946838E0,2.940859451E1,3.167620457E1
4.038109292E0,-1.706511292E1,-1.134865036E1,2.619537643E1,3.325970070E1
4.048150292E0,-1.710478043E1,-9.852361908E0,2.381787048E1,3.093434181E1
4.058191292E0,-9.482481079E0,-6.304888916E0,2.307361816E1,2.573054463E1
4.068231292E0,-4.474644928E0,-4.812941437E0,1.749292328E1,1.868660529E1
4.078272292E0,-4.696633301E0,-5.588179321E0,1.290571243E1,1.482712129E1
4.088313292E0,-8.040978699E0,-5.091362457E0,1.274165359E1,1.590374316E1
4.098354292E0,-1.088192093E1,-2.530637512E0,1.193183762E1,1.634591931E1
4.108395292E0,-1.025622208E1,3.524869995E0,8.263116760E0,1.363429127E1
4.118436292E0,-5.977669373E0,6.152206421E0,-4.179907837E0,9.542211719E0
4.128476292E0,-1.564681229E1,-1.355581055E0,-6.492448883E0,1.699447637E1
4.138517292E0,-8.983418884E0,-6.914271698E0,3.058290253E0,1.174146955E1
4.148558292E0,2.890339508E0,-7.053781586E0,8.453071747E0,1.138263234E1
4.158599292E0,5.372178497E0,-6.808890839E0,1.193363388E1,1.475238672E1
4.168640292E0,6.963219910E0,-8.755293274E0,1.365759888E1,1.765422326E1
4.178681292E0,6.372548218E0,-1.273087601E1,1.722138794E1,2.234414414E1
4.188722292E0,2.700085144E0,-1.646306488E1,2.190814178E1,2.753705942E1
4.198762292E0,-3.842958527E0,-1.917632263E1,2.658112427E1,3.300084616E1
4.208803292E0,-1.020083725E1,-1.766072433E1,2.787742859E1,3.454141412E1
4.218844292E0,-1.060290115E1,-1.274629395E1,2.514141815E1,3.011611577E1
4.228885292E0,-7.699538727E0,-8.662186890E0,1.954844879E1,2.272571734E1
4.238926292E0,-3.752995605E0,-7.202721863E0,1.422476944E1,1.638011733E1
4.248967292E0,-1.460961914E0,-7.149881744E0,8.503516846E0,1.120557974E1
4.259008292E0,-1.752106476E0,-5.846392365E0,3.595672760E0,7.083716777E0
4.269048292E0,-1.875599670E0,-3.335813141E0,1.494192810E0,4.108300815E0
4.279089292E0,-2.710263977E0,-4.604425049E-1,1.432221680E0,3.099805972E0
4.289130292E0,-4.334685974E0,2.552042999E0,1.438358917E0,5.231759010E0
4.299171292E0,-6.158643036E0,4.869972839E0,1.511556702E0,7.995644012E0
4.309212292E0,-6.686595154E0,6.170767822E0,1.233584747E0,9.182083728E0
4.319253292E0,-7.758067017E0,2.671195221E0,1.266366577E0,8.302202843E0
4.329294292E0,-7.811206512E0,-4.353546753E0,7.723937988E-1,8.975795714E0
4.339334292E0,-3.067570953E0,-8.569080505E0,4.840783539E0,1.030884657E1
4.349375292E0,4.291875000E0,-7.212301941E0,9.270222473E0,1.250497961E1
4.359416292E0,6.657854919E0,-6.825655975E0,1.212628326E1,1.542606098E1
4.369457292E0,2.333497467E0,-8.734785919E0,1.467967346E1,1.724049038E1
4.379498292E0,-3.264112244E0,-1.075019485E1,1.520193741E1,1.890291033E1
4.389539292E0,-6.750811615E0,-1.085183350E1,1.495644791E1,1.967310554E1
4.399580292E0,-8.360115051E0,-8.173004150E0,1.495405289E1,1.898191819E1
4.409620292E0,-1.017404297E1,-4.963378601E0,1.312036606E1,1.732888580E1
4.419661292E0,-9.505832520E0,-3.005599823E0,9.570198669E0,1.381966659E1
4.429702292E0,-8.230933685E0,-3.319048004E0,5.126988373E0,1.024940773E1
4.439743292E0,-7.687563629E0,-4.699178009E0,2.874622192E0,9.457502908E0
4.449784292E0,-6.358178101E0,-5.428461456E0,3.011587372E0,8.886184842E0
4.459825292E0,-5.057233429E0,-5.204676819E0,3.907174988E0,8.241983204E0
4.469865292E0,-5.913901978E0,-7.929011536E-1,-2.140848083E0,6.339255426E0
4.479906292E0,-1.000294876E1,3.065625000E0,-4.736151123E0,1.148425740E1
4.489947292E0,-1.636591690E1,2.612517242E0,-2.722837830E-1,1.657536186E1
4.499988292E0,-1.583691696E1,4.203708344E0,1.195369217E1,2.028225479E1
4.510029292E0,-1.192689789E1,9.967771912E-1,1.407208694E1,1.847344280E1
4.520070292E0,-1.162916702E1,-3.885470123E0,9.281299438E0,1.537780618E1
4.530111292E0,-9.952803040E0,-4.189936981E0,7.336393890E0,1.305513445E1
4.540151292E0,-8.097411346E0,-2.247875519E0,3.704346771E0,9.183855392E0
4.550192292E0,-6.645430756E0,-1.840722198E0,3.649411011E-1,6.905301597E0
4.560233292E0,-3.818559265E0,-2.577190704E0,-1.281784515E0,4.781869753E0
4.570274292E0,-1.168170776E0,-3.740122375E0,-1.220262451E0,4.103922367E0
4.580315292E0,-8.804690552E-1,-5.959257660E0,7.960446167E-1,6.076319992E0
4.590356292E0,-2.437082062E0,-7.326963501E0,2.707270203E0,8.182485874E0
4.600397292E0,-6.515201569E0,-6.578070831E0,5.333558807E0,1.068483584E1
4.610437292E0,-1.167347488E1,-4.684807892E0,9.922116852E0,1.602079410E1
4.620478292E0,-1.506856476E1,-3.480412445E0,1.404379578E1,2.089026363E1
4.630519292E0,-1.441352692E1,-6.091732178E0,1.321272400E1,2.048011315E1
4.640560292E0,-1.165296753E1,-1.046668442E1,9.736802216E0,1.844311395E1
4.650601292E0,-8.929980011E0,-1.241563156E1,9.240584106E0,1.786843151E1
4.660642292E0,-6.221961365E0,-1.162841858E1,9.984986115E0,1.654185206E1
4.670683292E0,-5.014572144E0,-9.327403564E0,9.496851196E0,1.422450610E1
4.680723292E0,-4.618196411E0,-5.702840881E0,9.438622284E0,1.195565652E1
4.690764292E0,-4.005819855E0,-3.630101166E0,1.074360855E1,1.202702590E1
4.700805292E0,-2.027234344E0,-5.818400574E-1,4.541406097E0,5.007253367E0
4.710846292E0,-4.640649719E0,1.984423370E0,-1.500180359E0,5.265368652E0
4.720887292E0,-6.916217651E0,2.659369812E0,-2.933898926E0,7.969571965E0
4.730928292E0,-5.050497437E0,3.936064911E0,-4.336631927E0,7.733466740E0
4.740969292E0,-3.876488800E0,6.760840759E0,-5.232967987E0,9.387230004E0
4.751009292E0,-1.058299255E0,7.886050873E0,-3.957620087E0,8.886650237E0
4.761050292E0,-4.969366150E0,2.584675140E0,-5.467829590E0,7.827662866E0
4.771091292E0,-1.140328674E1,-1.956132202E0,-9.926308136E0,1.524444144E1
4.781132292E0,-1.058538757E1,-2.997516632E0,-6.606062622E0,1.283259909E1
4.791173292E0,-8.599467316E0,-2.975811768E0,2.851869507E0,9.536217986E0
4.801214292E0,-1.233435059E1,-1.883233795E0,1.221789276E1,1.746309473E1
4.811254292E0,-2.253653503E1,-4.872966614E0,2.206351868E1,3.191300787E1
4.821295292E0,-2.843531845E1,-1.111528564E1,2.387071060E1,3.875471242E1
4.831336292E0,-1.938049805E1,-1.033660492E1,1.774410095E1,2.823654059E1
4.841377292E0,-7.186555481E0,-5.304070129E0,1.298474808E1,1.576018472E1
4.851418292E0,-3.614383850E0,-1.208437042E0,1.299627411E1,1.354353098E1
4.861459292E0,-3.423381042E0,-4.073030090E-1,1.239272919E1,1.286332656E1
4.871500292E0,-3.331472168E0,3.038681030E-1,7.349117432E0,8.074686969E0
4.881540292E0,-2.411634979E0,2.108515320E0,3.409759369E0,4.678491112E0
4.891581292E0,-1.339863739E0,4.296964417E0,-1.053658905E0,4.622697819E0
4.901622292E0,2.300715637E-1,6.258036346E0,-6.502777405E0,9.027849457E0
4.911663292E0,2.554138641E0,6.644233246E0,-7.798782349E0,1.055890457E1
4.921704292E0,-3.050356750E0,3.546125793E-1,-1.547287399E1,1.577467134E1
4.931745292E0,-1.195713501E1,6.483018494E-1,-1.160207336E1,1.667337636E1
4.941786292E0,-6.991511078E0,3.835324402E0,-1.634600830E0,8.140200261E0
4.951826292E0,-6.706503754E0,6.292015686E0,2.294578400E0,9.477960963E0
4.961867292E0,-1.504236923E1,7.544012146E0,1.252819748E1,2.097953106E1
4.971908292E0,-2.131612289E1,3.681594086E0,1.688818085E1,2.744343059E1
4.981949042E0,-2.108994324E1,8.120613098E-1,9.777068481E0,2.326018524E1
4.991990042E0,-1.507874359E1,2.608924713E0,5.518424377E0,1.626739082E1
5.002031042E0,-7.928412781E0,4.067192230E0,7.815697174E0,1.185271716E1
5.012072042E0,-3.373235321E0,4.482129364E0,6.295308838E0,8.432029028E0
5.022112042E0,-5.504054260E-1,5.229225769E0,1.326990509E0,5.422974469E0
5.032153042E0,-5.935157776E-1,5.843248901E0,-2.758613434E0,6.488895652E0
5.042194042E0,-1.817819824E0,6.710395660E0,-6.297404480E0,9.380361508E0
5.052235042E0,-3.187621307E0,7.931705933E0,-8.879983978E0,1.232586727E1
5.062276042E0,-4.584965515E0,9.253607025E0,-1.043225601E1,1.467934322E1
5.072317042E0,-3.196902008E0,9.050629120E0,-1.261411880E1,1.585086948E1
5.082357042E0,-5.891149292E0,4.640949097E0,-1.872605896E1,2.017199377E1
5.092398042E0,-8.716074829E0,3.741170197E0,-1.389979523E1,1.682767430E1
5.102439042E0,-6.466552734E-2,2.145488434E0,-5.290448456E0,5.709303558E0
5.112480042E0,6.584956512E0,-8.144563293E-1,-1.885928192E0,6.897950169E0
5.122521042E0,8.315208435E0,-4.932991791E0,3.551963654E0,1.030017209E1
5.132562042E0,6.597979431E0,-6.877448273E0,1.220337296E1,1.548402205E1
5.142603042E0,-3.616629181E0,-5.853128357E0,2.776321609E1,2.860306428E1
5.152643042E0,-2.255404861E1,-6.182892609E0,3.463123398E1,4.178798436E1
5.162684042E0,-2.938449463E1,-7.267686768E0,2.300610855E1,3.802037383E1
5.172725042E0,-2.003748184E1,-5.037773895E0,1.940325073E1,2.834371153E1
5.182766042E0,-1.078731766E1,-5.058730316E0,1.934217773E1,2.271732410E1
5.192807042E0,-5.296735382E0,-4.340074768E0,1.435499863E1,1.590464210E1
5.202848042E0,-4.543651428E0,-1.285826111E-1,1.038600220E1,1.133712236E1
5.212889042E0,-4.543651428E0,1.764680328E0,6.025869141E0,7.750481525E0
5.222929042E0,-3.194357300E0,4.067042542E0,1.113684082E0,5.290089397E0
5.232970042E0,-1.052311707E0,1.157393188E1,-2.819087677E0,1.195870037E1
5.243011042E0,2.634371796E0,1.626981674E1,-7.654931488E0,1.817263953E1
5.253052042E0,-2.827021179E0,1.137604340E1,-2.205244171E1,2.497431876E1
5.263093042E0,-1.088536377E1,5.636977844E0,-1.811248489E1,2.187072867E1
5.273134042E0,1.428479462E0,4.723277893E0,-6.355783081E0,8.046482847E0
5.283175042E0,9.352251892E0,4.668791199E0,9.116043091E-2,1.045325485E1
5.293215042E0,1.058194473E1,1.213526459E0,4.767585754E0,1.166962188E1
5.303256042E0,9.201066284E0,-2.177072754E0,8.797355804E0,1.291482620E1
5.313297042E0,5.624104614E0,-3.321443024E0,1.460857132E1,1.600227773E1
5.323338042E0,-1.879341888E0,-2.302062836E0,2.209300735E1,2.229198047E1
5.333379042E0,-1.140987305E1,-2.579885101E0,3.050461533E1,3.267066829E1
5.343420042E0,-2.116628448E1,-2.987188110E0,2.981245468E1,3.668402031E1
5.353460042E0,-2.358465546E1,-2.701432343E0,1.979244141E1,3.090751440E1
5.363501042E0,-1.563169373E1,-1.924398193E0,1.547916092E1,2.208297036E1
5.373542042E0,-6.848408661E0,-1.838626556E0,1.280976196E1,1.464142242E1
5.383583042E0,-2.230960693E0,-1.515747986E0,8.092471619E0,8.530109874E0
5.393624042E0,-6.252497864E-1,-1.752854919E-1,5.354515228E0,5.393745974E0
5.403665042E0,-5.315446472E-1,3.428021393E0,3.159330139E0,4.692039781E0
5.413706042E0,-6.813830566E-1,9.459279327E0,6.120771790E-1,9.503519703E0
5.423746042E0,1.783990173E0,1.512634460E1,-6.218069458E-1,1.524386978E1
5.433787042E0,1.929936676E0,1.140972336E1,-1.343695770E1,1.773297141E1
5.443828042E0,-7.148534546E0,3.557951202E0,-1.947270630E1,2.104630261E1
5.453869042E0,-1.634600830E-1,1.056353302E0,-9.927505646E0,9.984887072E0
5.463910042E0,9.427395630E0,3.445085907E0,-3.910168762E0,1.077189979E1
5.473951042E0,1.181627792E1,2.788551178E0,7.797285461E-1,1.216587104E1
5.483992042E0,1.038480469E1,-5.195695496E-1,3.921245728E0,1.111261846E1
5.494032042E0,7.734116821E0,-3.840563507E0,7.918832703E0,1.171641594E1
5.504073042E0,8.446934509E-1,-4.424648895E0,1.496138763E1,1.562479263E1
5.514114042E0,-7.254813538E0,-3.940256195E0,2.388942169E1,2.527572763E1
5.524155042E0,-1.759800476E1,-5.640121307E0,2.777968185E1,3.336482375E1
5.534196042E0,-2.351490051E1,-7.170688477E0,2.331776047E1,3.388343655E1
5.544237042E0,-1.602103409E1,-5.019062805E0,2.054058563E1,2.652885566E1
5.554278042E0,-7.081174622E0,-4.872966614E0,1.824391159E1,2.016752706E1
5.564318042E0,-3.304827576E0,-6.294710083E0,1.318922287E1,1.498335277E1
5.574359042E0,-1.994901581E0,-5.082231445E0,8.727600861E0,1.029464548E1
5.584400042E0,-2.333048401E0,-2.710263977E0,5.703289948E0,6.731728002E0
5.594441042E0,-3.302432556E0,9.198371887E-1,2.239343262E0,4.094730698E0
5.604482042E0,-2.425556030E0,6.218219147E0,-2.430944824E0,7.103454382E0
5.614523042E0,4.381837921E0,1.136257141E1,-8.151898041E0,1.465475944E1
5.624564042E0,-2.546055450E0,5.589376831E0,-1.748154694E1,1.852911263E1
5.634604042E0,-7.679480438E0,1.881587219E0,-1.160357025E1,1.404128316E1
5.644645042E0,4.317322083E0,2.507136383E0,-4.022435303E0,6.411317226E0
5.654686042E0,8.464148712E0,2.078278198E0,3.562591553E-1,8.722842099E0
5.664727042E0,8.507109375E0,-2.177222443E0,3.359613647E0,9.402032299E0
5.674768042E0,9.035510559E0,-6.363716583E0,6.408174133E0,1.277505521E1
5.684809042E0,6.984326019E0,-8.097710724E0,1.206925186E1,1.612515331E1
5.694849042E0,3.113824768E0,-8.409811707E0,1.808284653E1,2.018440428E1
5.704890042E0,-3.668271790E0,-8.521479492E0,2.245645157E1,2.429740825E1
5.714931042E0,-1.166643951E1,-8.956175537E0,2.032383636E1,2.508739157E1
5.724972042E0,-1.422881104E1,-8.401279449E0,1.734248611E1,2.395417259E1
5.735013042E0,-7.259753265E0,-6.765181732E0,1.688518707E1,1.958523025E1
5.745054042E0,-4.336482239E-1,-7.084168396E0,1.165536255E1,1.364628040E1
5.755095042E0,1.417851562E0,-8.578959961E0,6.713988190E0,1.098574051E1
5.765135042E0,1.200952606E0,-7.309898987E0,3.367696838E0,8.137462280E0
5.775176042E0,-1.357676697E-1,-3.729644165E0,2.684218140E0,4.597141011E0
5.785217042E0,-2.246678009E0,-2.418969727E-1,3.307072906E0,4.005347355E0
5.795258042E0,-5.418731689E0,2.395169220E0,1.078507233E0,6.021849099E0
5.805299042E0,-6.208190002E0,4.830604706E0,-1.900447998E0,8.092469804E0
5.815340042E0,-3.851041718E0,6.925049286E0,-4.841382294E0,9.285785505E0
5.825381042E0,-1.852547607E0,4.405039673E0,-9.073830872E0,1.025527737E1
5.835421042E0,-5.862858124E0,2.014810181E0,-1.226519440E1,1.374290941E1
5.845462042E0,-4.107458496E0,5.127437439E0,-6.351442108E0,9.137978269E0
5.855503042E0,1.169817352E0,4.907844086E0,-3.085533600E0,5.914044623E0
5.865544042E0,1.904938660E0,3.883823547E0,-6.497987366E-1,4.374370245E0
5.875585042E0,1.269809418E0,3.255729675E0,4.812043304E0,5.947096135E0
5.885626042E0,-1.188827820E0,3.019371185E0,1.145448029E1,1.190525231E1
5.895667042E0,-6.473588104E0,1.966610413E0,1.583152817E1,1.721662521E1
5.905707042E0,-1.115315689E1,1.671124878E0,1.518382507E1,1.891386028E1
5.915748042E0,-1.082623672E1,2.133513336E0,1.379965347E1,1.766889121E1
5.925789042E0,-8.188721466E0,3.738924866E0,1.236728210E1,1.529654814E1
5.935830042E0,-6.115682373E0,5.854475555E0,8.755892029E0,1.217957717E1
5.945871042E0,-5.654641113E0,7.068002014E0,5.961952057E0,1.083865725E1
5.955912042E0,-5.795947266E0,7.989186401E0,3.206482086E0,1.037793965E1
5.965953042E0,-5.653892670E0,9.695338440E0,5.409750366E-1,1.123649161E1
5.975993042E0,-5.438490601E0,1.197539703E1,-1.193468170E0,1.320650144E1
5.986033708E0,-5.661975861E0,1.410846130E1,-2.162852325E0,1.535527861E1
5.996074708E0,-5.029241638E0,1.470871307E1,-4.816234589E0,1.627377115E1
6.006115708E0,-3.961811371E0,1.237955658E1,-1.415561325E1,1.921798004E1
6.016156708E0,-6.193221130E0,8.171956329E0,-2.114607651E1,2.350092360E1
6.026197708E0,-7.023843842E0,9.825268250E0,-7.598199463E0,1.426894928E1
6.036237708E0,-1.022972717E0,1.132410141E1,-2.180964661E-1,1.137230460E1
6.046278708E0,2.910098419E0,9.411678314E0,2.796933746E0,1.024066404E1
6.056319708E0,1.535506897E0,6.859186249E0,9.570498047E0,1.187436947E1
6.066360708E0,-4.919968872E0,4.899611206E0,1.621368347E1,1.763790848E1
6.076401708E0,-1.100002533E1,4.035458221E0,1.731105148E1,2.090353998E1
6.086442708E0,-1.062610291E1,5.243595886E0,1.294972092E1,1.755290952E1
6.096483708E0,-7.970625000E0,7.421716461E0,1.084644470E1,1.537068967E1
6.106523708E0,-5.360353088E0,8.662186890E0,1.090093140E1,1.491969076E1
6.116564708E0,-4.777165833E0,1.219139786E1,3.185375977E0,1.347583449E1
6.126605708E0,-8.535550232E0,1.917527481E1,6.123765564E-1,2.099813770E1
6.136646708E0,-6.347550201E0,1.106349335E1,1.987866211E0,1.290906235E1
6.146687708E0,-3.689826965E0,1.162901733E1,-9.641450500E-1,1.223840034E1
6.156728708E0,-4.453389130E0,1.270168671E1,-1.192270660E0,1.351247680E1
6.166769708E0,-5.189258881E0,1.484088821E1,-4.560715942E0,1.637010998E1
6.176809708E0,-7.690258026E0,1.484343292E1,-3.639681244E0,1.710891139E1
6.186850708E0,-7.654332733E0,1.304701859E1,-2.914888458E0,1.540487190E1
6.196891708E0,-7.898924103E0,1.194022018E1,-1.486259308E0,1.439342999E1
6.206932708E0,-9.398655396E0,1.083192490E1,1.446142731E0,1.441376595E1
6.216973708E0,-9.673633575E0,9.437873840E0,3.817511444E0,1.404371898E1
6.227014708E0,-1.020248383E1,8.211025085E0,5.133724365E0,1.406651112E1
6.237055708E0,-1.021086639E1,6.880442047E0,5.838309174E0,1.362674317E1
6.247095708E0,-9.063202972E0,5.492827606E0,6.212830353E0,1.228462715E1
6.257136708E0,-7.634723511E0,5.614075470E0,5.691614227E0,1.105447054E1
6.267177708E0,-6.323300629E0,5.031037903E0,2.265089722E0,8.392026255E0
6.277218708E0,-5.526507568E0,6.727909241E0,6.037395172E0,1.059514932E1
6.287259708E0,-2.685864716E0,5.400769043E0,3.550466766E0,6.999142075E0
6.297300708E0,-3.178789673E0,3.342100067E0,-1.981878662E-1,4.616667096E0
6.307340708E0,-8.843609619E-1,4.054319000E0,-2.716550903E0,4.959762663E0
6.317381708E0,1.529818726E-1,5.496869202E0,-2.915636902E0,6.224139540E0
6.327422708E0,-9.494755554E-1,6.294410706E0,-2.919528809E0,7.003196301E0
6.337463708E0,-2.522704010E0,6.755451965E0,-4.481380920E0,8.490167356E0
6.347504708E0,-5.069807281E0,7.722740479E0,-7.557334442E0,1.193553393E1
6.357545708E0,-6.546636200E0,8.040679321E0,-1.105076981E1,1.515356337E1
6.367586708E0,-6.442901917E0,6.985373840E0,-1.297801208E1,1.608524885E1
6.377626708E0,-8.580756226E0,4.904550934E0,-1.331346451E1,1.658108363E1
6.387667708E0,-7.690557404E0,3.591930542E0,-5.326373749E0,1.002082310E1
6.397708708E0,-3.116519165E0,3.130739594E0,1.468895416E0,4.655306204E0
6.407749708E0,9.840536499E-1,1.846260681E0,7.564968567E0,7.848935565E0
6.417790708E0,2.841391296E0,1.730401611E-1,1.364307907E1,1.393689542E1
6.427831708E0,-1.966011658E0,-9.172924805E-1,1.947614914E1,1.959660717E1
6.437872708E0,-8.244705048E0,-5.677393799E0,2.132854706E1,2.356087607E1
6.447912708E0,-7.879913635E0,-1.041040146E1,1.888143585E1,2.295600395E1
6.457953708E0,1.183439026E0,-5.942193146E0,1.338531509E1,1.469274813E1
6.467994708E0,6.029311981E0,5.321434021E-1,6.422544250E0,8.825239612E0
6.478035708E0,3.286864929E0,4.364623718E0,5.269342346E0,7.590743707E0
6.488076708E0,2.230960693E0,5.718558197E0,2.067650299E0,6.477211686E0
6.498117708E0,2.636916504E0,5.130580902E0,-2.749033356E0,6.390099642E0
6.508158708E0,3.253334656E0,5.696254578E0,-7.071594543E0,9.645670116E0
6.518198708E0,2.473755798E0,7.415279846E0,-8.483757935E0,1.153603015E1
6.528239708E0,1.077309723E0,8.838520203E0,-7.614964600E0,1.171613082E1
6.538280708E0,-4.590953064E-1,1.019769379E1,-7.531587982E0,1.268576149E1
6.548321708E0,3.378474426E-1,1.141122025E1,-9.246421967E0,1.469103154E1
6.558362708E0,-9.036708069E-1,8.730444946E0,-1.404649017E1,1.656324775E1
6.568403708E0,-3.960015106E0,2.291884003E0,-1.325343933E1,1.402098805E1
6.578444708E0,-8.012837219E-1,-7.695497131E-1,-6.793921967E0,6.884158485E0
6.588484708E0,2.594255219E0,-1.501826935E0,-1.132544861E0,3.204419158E0
6.598525708E0,4.701273651E0,-2.855162659E0,4.653972015E0,7.205094258E0
6.608566708E0,4.289779358E0,-4.034260712E0,9.725874939E0,1.136970139E1
6.618607708E0,-3.954027557E0,-4.762496338E0,1.296798294E1,1.436956112E1
6.628648708E0,-1.302486465E1,-8.297096100E0,1.233345245E1,1.976367760E1
6.638689708E0,-1.628628250E1,-1.104627914E1,9.478589172E0,2.184277760E1
6.648730708E0,-1.107606720E1,-6.546935577E0,3.773353271E0,1.340819992E1
6.658770708E0,-8.095465393E0,-1.141975250E0,-3.378624115E0,8.846229045E0
6.668811708E0,-1.080408279E1,2.043101349E0,-4.815785522E0,1.200392679E1
6.678852708E0,-1.384141663E1,1.893412628E0,-4.167932739E0,1.457880273E1
6.688893708E0,-1.569426361E1,1.992955627E0,-3.798351288E0,1.626988798E1
6.698934708E0,-1.413869843E1,3.325484619E0,-1.810036011E0,1.463686686E1
6.708975708E0,-9.650431824E0,3.700305176E0,-2.306254120E0,1.058970731E1
6.719016708E0,-6.073320465E0,-3.499722290E-1,-4.687352600E0,7.679777108E0
6.729056708E0,-8.588090973E0,-7.403604126E0,-1.410950912E1,1.810101954E1
6.739097708E0,-9.879006500E0,-8.292306061E0,-9.296268311E0,1.589898468E1
6.749138708E0,-5.411546631E0,-5.723048859E0,-1.787882080E0,8.076796859E0
6.759179708E0,-2.871927795E0,-4.957391052E0,1.797911224E0,6.004679848E0
6.769220708E0,-1.823358307E0,-7.715555420E0,7.695796509E0,1.104896895E1
6.779261708E0,-5.302423553E0,-9.794881439E0,1.101065323E1,1.566173306E1
6.789301708E0,-1.799737427E1,-1.086485641E1,1.356748627E1,2.502053695E1
6.799342708E0,-2.780932022E1,-1.266740799E1,1.075962524E1,3.239739267E1
6.809383708E0,-2.353900040E1,-9.101223907E0,6.955436096E0,2.617813797E1
6.819424708E0,-1.429362625E1,-4.068539429E0,-3.063978424E0,1.517394900E1
6.829465708E0,-1.484492981E1,-1.504221954E0,-8.239465942E0,1.704474769E1
6.839506708E0,-1.920955353E1,1.663191376E0,-5.327421570E0,2.000386395E1
6.849547708E0,-2.037413177E1,5.146747284E0,-4.193828888E0,2.142854297E1
6.859587708E0,-2.074640762E1,8.217162323E0,-3.718866577E0,2.262222700E1
6.869628708E0,-1.850197495E1,1.065259781E1,-4.182452545E0,2.175531719E1
6.879669708E0,-1.539668243E1,1.058134598E1,-4.792434082E0,1.928704584E1
6.889710708E0,-1.575997696E1,5.545518036E0,-9.717492371E0,1.932768227E1
6.899751708E0,-1.548649567E1,4.066593475E0,-6.412215729E0,1.724776047E1
6.909792708E0,-9.726324005E0,5.560786285E0,-1.362167358E-1,1.120456504E1
6.919833708E0,-5.555547180E0,5.919141083E0,4.601880341E0,9.331539975E0
6.929873708E0,-3.678450623E0,3.672014008E0,8.311466217E0,9.802813705E0
6.939914708E0,-3.029699707E0,3.429368591E-1,8.988657990E0,9.491715254E0
6.949955708E0,-4.933740234E0,-1.062789917E0,9.344917145E0,1.062067755E1
6.959996708E0,-1.106304428E1,-2.248474274E0,1.102666992E1,1.578081224E1
6.970037708E0,-2.005544449E1,-5.958658905E0,1.153082153E1,2.388904173E1
6.980078708E0,-2.163002014E1,-8.607849884E0,1.101768860E1,2.575543269E1
6.990119542E0,-1.532707718E1,-6.051615601E0,7.287745056E0,1.801811794E1
7.000159542E0,-1.337618408E1,-2.138003998E0,3.467389526E0,1.398270903E1
7.010200542E0,-1.525657379E1,6.530918884E-1,4.962480469E0,1.605664303E1
7.020241542E0,-1.750819153E1,2.232008514E0,6.257587280E0,1.872634591E1
7.030282542E0,-1.882141068E1,3.585194550E0,4.924609222E0,1.978259072E1
7.040323542E0,-1.826232330E1,3.844156036E0,3.232078857E0,1.894033584E1
7.050364542E0,-1.570114929E1,4.311334534E0,7.188052368E-1,1.629817093E1
7.060405542E0,-1.317634964E1,4.633614349E0,-1.790127411E0,1.408158826E1
7.070445542E0,-1.219753510E1,1.667382660E0,-6.132746887E0,1.375393077E1
7.080486542E0,-1.448956879E1,-1.785487061E0,-1.199994598E1,1.889799649E1
7.090527542E0,-1.352003494E1,-7.198530579E-1,-7.973768463E0,1.571275013E1
7.100568542E0,-7.678582306E0,1.392105103E0,-3.171903992E0,8.423749627E0
7.110609542E0,-3.840713196E0,9.837542725E-1,-5.340893555E-1,4.000512687E0
7.120650542E0,-2.356100464E0,-1.789977722E0,2.816542969E0,4.085112475E0
7.130691542E0,-3.021915894E0,-3.791615295E0,5.945785675E0,7.672072048E0
7.140731542E0,-8.682394867E0,-3.669918365E0,1.248403931E1,1.564300223E1
7.150772542E0,-1.846664841E1,-6.182593231E0,1.835108871E1,2.675825143E1
7.160813542E0,-2.213641708E1,-1.031145721E1,1.867845795E1,3.074462396E1
7.170854542E0,-1.585143677E1,-1.067624863E1,1.462294144E1,2.406409667E1
7.180895542E0,-8.995843048E0,-7.931855621E0,1.017898270E1,1.573058214E1
7.190936542E0,-5.926326141E0,-5.413043518E0,6.949598236E0,1.061693446E1
7.200977542E0,-4.967569885E0,-2.880460052E0,4.986430664E0,7.605149009E0
7.211017542E0,-4.289479980E0,-7.620652771E-1,2.108665009E0,4.840129142E0
7.221058542E0,-3.966002655E0,1.038839722E-1,4.071533203E-1,3.988200442E0
7.231099542E0,-1.934127960E0,1.134790192E0,-2.653232574E0,3.473937656E0
7.241140542E0,-1.535955963E0,1.908680878E0,-6.627917175E0,7.066223142E0
7.251181542E0,-2.012714539E0,-6.107299805E-2,-8.555758209E0,8.789524917E0
7.261222542E0,-3.209475861E0,-3.876189423E0,-1.494641876E1,1.577089134E1
7.271263542E0,-8.869505768E0,-1.656754761E0,-1.478520401E1,1.732094762E1
7.281303542E0,-3.847598877E0,-1.141077118E0,-6.795119476E0,7.891750300E0
7.291344542E0,7.843688965E-2,-2.595003662E0,-2.842588806E0,3.849741222E0
7.301385542E0,7.147636414E-1,-6.095923462E0,1.706451416E-2,6.137708132E0
7.311426542E0,3.790118408E-1,-9.517358551E0,4.900060272E0,1.071141235E1
7.321467542E0,-2.454595642E0,-9.396110687E0,1.347213455E1,1.660753881E1
7.331508542E0,-9.126820679E0,-8.742869110E0,2.169678131E1,2.510949890E1
7.341549542E0,-1.776281204E1,-8.457263031E0,2.284249878E1,3.014668373E1
7.351589542E0,-1.877815063E1,-1.027568161E1,1.910207703E1,2.868968317E1
7.361630542E0,-1.556253754E1,-1.133442993E1,1.610575790E1,2.510094249E1
7.371671542E0,-1.173978699E1,-9.795779572E0,1.273626480E1,1.989955620E1
7.381712542E0,-9.322014771E0,-7.050488434E0,8.749006348E0,1.459981023E1
7.391753542E0,-9.516909485E0,-4.368066559E0,6.020031281E0,1.207859049E1
7.401794542E0,-9.563911743E0,-1.579814758E0,3.931274872E0,1.046036064E1
7.411835542E0,-9.153465271E0,1.851350098E0,1.825753326E0,9.515608171E0
7.421875542E0,-7.798333282E0,4.196523285E0,-2.761756897E-1,8.860083672E0
7.431916542E0,-4.537963257E0,3.387455750E-1,-6.629713440E0,8.041203851E0
7.441957542E0,-1.109268265E1,-4.282294922E0,-1.213017517E1,1.698607688E1
7.451998542E0,-1.048689240E1,-3.170556793E0,-2.218386841E0,1.117804020E1
7.462039542E0,-2.160008240E0,-2.378553772E0,1.950294342E0,3.758563777E0
7.472080542E0,-7.333250427E-1,-3.348536682E0,4.630770264E0,5.761466546E0
7.482121542E0,-3.287164307E-1,-7.152127075E0,7.991431732E0,1.072958328E1
7.492161542E0,-3.173700256E0,-9.428742828E0,1.402149216E1,1.719231825E1
7.502202542E0,-7.850874023E0,-1.118279526E1,1.886167694E1,2.329064168E1
7.512243542E0,-1.070858139E1,-1.329879501E1,2.223670853E1,2.803574273E1
7.522284542E0,-1.235126541E1,-1.555460403E1,2.417876999E1,3.129077152E1
7.532325542E0,-1.361643448E1,-1.716929626E1,2.304622513E1,3.180126593E1
7.542366542E0,-1.307022034E1,-1.814586548E1,1.871273666E1,2.915938283E1
7.552407542E0,-9.543254700E0,-1.812221466E1,1.246802261E1,2.397790571E1
7.562447542E0,-6.393953705E0,-1.743304779E1,6.503974915E0,1.967474241E1
7.572488542E0,-4.342170410E0,-1.572105789E1,2.613565063E0,1.651777308E1
7.582529542E0,-1.888472900E0,-1.324400894E1,3.653901672E-1,1.338295979E1
7.592570542E0,-5.852828979E-2,-1.084464844E1,-8.476872253E-1,1.087788577E1
7.602611542E0,5.602848816E-1,-8.750652924E0,-1.683249664E0,8.928671523E0
7.612652542E0,-1.889071655E-1,-6.929090881E0,-2.515968018E0,7.374149539E0
7.622693542E0,-1.503623199E0,-5.314548340E0,-2.835703125E0,6.208584299E0
7.632733542E0,-1.810784454E0,-4.146227875E0,-2.620600433E0,5.228545932E0
7.642774542E0,-1.888173523E0,-3.213367767E0,-1.967957611E0,4.214711001E0
7.652815542E0,-2.231260071E0,-1.926793213E0,-7.210505676E-1,3.034957580E0
7.662856542E0,-2.495161285E0,-7.306306458E-1,4.409829712E-1,2.637065976E0
7.672897542E0,-2.594704285E0,-6.212081909E-2,6.634204102E-1,2.678894541E0
7.682938542E0,-2.528242493E0,4.614903259E-1,5.146298218E-1,2.621035535E0
7.692979542E0,-1.938768311E0,1.396595764E0,5.987548828E-1,2.463292451E0
7.703019542E0,-1.435365143E0,2.226470032E0,4.087998962E-1,2.680402815E0
7.713060542E0,-1.755549316E0,3.043471069E0,1.425335999E0,3.791602862E0
7.723101542E0,-1.807042236E0,3.970044250E0,3.372037811E0,5.513373921E0
7.733142542E0,-2.368674316E0,4.540358276E0,5.309009857E0,7.376385087E0
7.743183542E0,-3.261866913E0,4.760400696E0,8.034542084E0,9.892171503E0
7.753224542E0,-1.334474945E0,4.596042480E0,9.669292603E0,1.078886691E1
7.763264542E0,9.086105347E-1,4.112098846E0,8.479416962E0,9.467599592E0
7.773305542E0,2.772085419E0,4.215683441E0,4.408632202E0,6.700185247E0
7.783346542E0,4.921765137E0,5.397475891E0,-1.576222229E-1,7.306255048E0
7.793387542E0,5.495372314E0,6.895261230E0,-2.771935730E0,9.242692898E0
7.803428542E0,3.115621033E0,8.315956879E0,-1.163231049E0,8.956301675E0
7.813469542E0,3.050955505E0,1.100646194E1,-3.246598663E0,1.187396046E1
7.823510542E0,1.470392303E0,1.426443695E1,-1.323368042E1,1.951323942E1
7.833550542E0,-5.545967102E-1,1.429153061E1,-2.500999146E1,2.881067679E1
7.843591542E0,4.358336792E0,1.095931000E1,-3.033337143E1,3.254558338E1
7.853632542E0,-4.395908661E0,1.109298203E1,-3.176215027E1,3.392952185E1
7.863673542E0,-3.933819580E-1,1.383872223E1,-1.641621231E1,2.147456656E1
7.873714542E0,7.109465790E0,1.251622238E1,-9.007818146E0,1.698060995E1
7.883755542E0,5.830375671E0,9.778715057E0,-3.361260223E0,1.187074635E1
7.893796542E0,5.840255127E0,7.515720978E0,1.291364594E0,9.605324788E0
7.903836542E0,4.738695831E0,7.188651123E0,4.944667511E0,9.928830744E0
7.913877542E0,1.625619507E0,6.743626556E0,9.191486206E0,1.151531835E1
7.923918542E0,-2.278711395E0,5.675597534E0,1.268267624E1,1.408031284E1
7.933959542E0,-4.115691376E0,4.778662720E0,1.341360626E1,1.482225913E1
7.944000542E0,-1.395847321E0,5.468278656E0,1.019170624E1,1.164995010E1
7.954041542E0,1.100810852E0,7.513026581E0,5.849386139E0,9.585023273E0
7.964082542E0,6.712042236E-1,9.249415741E0,3.284619598E0,9.838238286E0
7.974122542E0,-5.060975647E-1,9.967173157E0,8.613088989E-1,1.001711178E1
7.984163708E0,-1.653012543E0,1.095362183E1,-1.868264923E0,1.123408632E1
7.994204708E0,-2.472258911E0,1.321047867E1,-5.162015533E0,1.439705578E1
8.004245708E0,-2.451452179E0,1.439885742E1,-8.641679535E0,1.697101464E1
8.014286708E0,-2.835104370E-1,1.180819473E1,-1.274749146E1,1.737850337E1
8.024327708E0,4.740641785E-1,6.797813873E0,-1.596160767E1,1.735534297E1
8.034368708E0,-1.318757629E-1,5.922883301E0,-1.029603928E1,1.187881992E1
8.044408708E0,2.428400116E0,7.076683960E0,-4.699028320E0,8.835012742E0
8.054449708E0,2.937641144E0,5.577252045E0,-1.469194794E0,6.472558165E0
8.064490708E0,5.406756592E-1,3.158731384E0,4.436324615E0,5.472740650E0
8.074531708E0,-1.750160522E0,2.233804779E0,1.169473068E1,1.203410451E1
8.084572708E0,-6.047124939E0,1.013991394E0,1.965637436E1,2.059050634E1
8.094613708E0,-1.205727676E1,-1.103954315E0,2.497212021E1,2.775253909E1
8.104654708E0,-1.340073303E1,-2.204615479E0,2.481614456E1,2.828923834E1
8.114694708E0,-9.774224396E0,-9.536668396E-1,2.009196854E1,2.236363438E1
8.124735708E0,-6.228397980E0,1.341660004E0,1.522678574E1,1.650599881E1
8.134776708E0,-3.709885254E0,3.121159515E0,6.331234131E0,7.974296893E0
8.144817708E0,-7.329657898E0,8.582103424E0,-6.764283600E0,1.315796020E1
8.154858708E0,-6.100264435E0,1.145777344E1,6.184539185E0,1.437853690E1
8.164899708E0,2.823728027E0,7.184010773E0,-1.013841705E0,7.785327595E0
8.174939708E0,-4.682263184E-1,7.157066803E0,-4.296814728E0,8.360948386E0
8.184980708E0,2.724334717E-2,1.054347473E1,-3.259920959E0,1.103597238E1
8.195021708E0,-1.858834534E0,1.120075790E1,-3.880231018E0,1.199868477E1
8.205062708E0,-4.568050690E0,1.186941742E1,-6.941215668E0,1.448898312E1
8.215103708E0,-4.651726685E0,1.161045593E1,-8.617579651E0,1.518894095E1
8.225144708E0,-5.180576935E0,9.504335632E0,-7.407496033E0,1.311646944E1
8.235185708E0,-4.840334473E0,7.401807861E0,-2.439626770E0,9.174277966E0
8.245225708E0,-2.402653656E0,6.343209229E0,2.336640930E0,7.174185581E0
8.255266708E0,-6.670129395E-1,5.758225708E0,5.683531036E0,8.118164485E0
8.265307708E0,1.700314178E0,4.296215973E0,7.432943115E0,8.751981681E0
8.275348708E0,3.892655182E0,2.356848907E0,9.080866241E0,1.015724534E1
8.285389708E0,3.180436249E0,1.072519684E0,1.395188690E1,1.434993454E1
8.295430708E0,1.149759064E0,-2.599644012E0,2.031171158E1,2.050964949E1
8.305471708E0,5.435197449E-1,-7.015461273E0,2.193598389E1,2.303691602E1
8.315511708E0,4.937781830E0,-7.827372894E0,2.052352112E1,2.251364864E1
8.325552708E0,1.139355698E1,-5.758974152E0,1.531629959E1,1.993910622E1
8.335593708E0,1.185055664E1,-2.874622192E0,1.163754959E1,1.685620675E1
8.345634708E0,9.308393097E0,-2.993774414E-3,1.023107437E1,1.383188613E1
8.355675708E0,7.006779327E0,1.614841919E0,8.615933075E0,1.122216440E1
8.365716708E0,4.464166718E0,3.679947510E0,7.119345245E0,9.173651120E0
8.375757708E0,2.504142609E0,8.275540924E0,4.910538483E0,9.943273907E0
8.385797708E0,3.957769775E-1,1.232117798E1,-3.838018799E-1,1.233350599E1
8.395838708E0,-5.066963196E-1,1.255708740E1,-8.363707581E0,1.509598588E1
8.405879708E0,-1.442999268E0,8.320597229E0,-1.878413818E1,2.059510700E1
8.415920708E0,-3.392994232E0,6.814129944E0,-1.542916489E1,1.720476405E1
8.425961708E0,3.466341705E0,9.249864807E0,-4.943470001E0,1.104596847E1
8.436002708E0,8.483458557E0,8.758885803E0,-1.507066040E0,1.228651284E1
8.446043708E0,8.736133118E0,5.715564423E0,3.043321381E0,1.087425876E1
8.456083708E0,1.022044647E1,2.050585785E0,6.207740936E0,1.213253789E1
8.466124708E0,8.684340820E0,6.960525513E-2,1.025936554E1,1.344162199E1
8.476165708E0,3.593277740E0,-2.433938599E-1,1.587673416E1,1.628009745E1
8.486206708E0,-1.485061798E0,-1.683249664E0,2.109084137E1,2.120995822E1
8.496247708E0,-1.736688538E0,-3.862567749E0,2.123439285E1,2.165259699E1
8.506288708E0,1.791923676E0,-3.307971039E0,1.727407837E1,1.767901146E1
8.516329708E0,3.203188934E0,-1.588796082E0,1.491064316E1,1.533336140E1
8.526369708E0,2.702180786E0,-2.634521484E-1,1.220561829E1,1.250393161E1
8.536410708E0,1.805994415E0,1.182241516E0,8.046367493E0,8.330866741E0
8.546451708E0,2.603386230E0,2.247875519E0,3.028502197E0,4.582836433E0
8.556492708E0,4.062102814E0,3.162024536E0,-2.783761139E0,5.852213642E0
8.566533708E0,4.390220490E0,4.387376404E0,-6.510561218E0,8.995027239E0
8.576574708E0,3.768862610E0,6.115981750E0,-8.828491058E0,1.138208296E1
8.586615708E0,9.580078125E-1,7.812404022E0,-8.762927399E0,1.177880861E1
8.596655708E0,-1.826202393E0,9.731862488E0,-9.981992340E0,1.406002609E1
8.606696708E0,-4.544399872E0,1.197854050E1,-1.406505157E1,1.902531678E1
8.616737708E0,-4.716990967E0,1.322933945E1,-1.955982513E1,2.408012013E1
8.626778708E0,-5.402714996E0,9.636211395E0,-2.571382782E1,2.798654749E1
8.636819708E0,-8.913364563E0,5.709427185E0,-2.066886887E1,2.322170896E1
8.646860708E0,-3.307222595E0,7.161258087E0,-7.755821686E0,1.106228316E1
8.656901708E0,3.409759369E0,6.998396759E0,5.873785400E-1,7.806985955E0
8.666941708E0,6.317163391E0,2.033820648E0,6.240822144E0,9.109930887E0
8.676982708E0,8.187074890E0,-2.581381989E0,1.052910461E1,1.358505695E1
8.687023708E0,8.800948334E0,-4.012855225E0,1.486843094E1,1.773781095E1
8.697064708E0,9.467811584E0,-3.967200165E0,1.667098251E1,1.957804360E1
8.707105708E0,8.262218628E0,-4.023333435E0,1.804781937E1,2.025278382E1
8.717146708E0,6.383325806E0,-4.513414307E0,2.012774414E1,2.159268027E1
8.727187708E0,4.170926514E0,-6.269861755E0,1.960278580E1,2.099945250E1
8.737227708E0,5.148992615E0,-6.248007202E0,1.674133621E1,1.859629149E1
8.747268708E0,7.886350250E0,-2.924917603E0,1.353769821E1,1.593797152E1
8.757309708E0,7.207362213E0,8.786727905E-1,1.238614288E1,1.435739083E1
8.767350708E0,4.117936707E0,3.394191742E0,1.247984802E1,1.357293435E1
8.777391708E0,9.897418213E-1,4.596940613E0,1.131062943E1,1.224915466E1
8.787432708E0,-2.666405182E0,5.838309174E0,1.017688705E1,1.203181619E1
8.797473708E0,-4.245621185E0,8.737180939E0,9.540709991E0,1.361575474E1
8.807513708E0,-3.435356140E0,1.201686081E1,5.958209839E0,1.384582536E1
8.817554708E0,-9.282197571E-1,1.239931549E1,8.241860962E-1,1.246129605E1
8.827595708E0,-5.105882263E-1,7.140002289E0,-1.000294876E1,1.230037873E1
8.837636708E0,-1.173260193E0,3.710334320E0,-9.397757263E0,1.017157617E1
8.847677708E0,5.747148743E0,6.475983124E0,-4.396357727E-1,8.669564908E0
8.857718708E0,9.328301697E0,6.115832062E0,2.258054352E0,1.138066008E1
8.867758708E0,9.955198059E0,1.271306305E0,6.181395721E0,1.178693519E1
8.877799708E0,1.126946503E1,-2.830613708E0,1.074405762E1,1.582554865E1
8.887840708E0,8.984017639E0,-4.659360809E0,1.532932251E1,1.836873280E1
8.897881708E0,5.270539856E0,-5.672154694E0,1.961326401E1,2.108630016E1
8.907922708E0,1.847009125E0,-6.133794708E0,2.156041489E1,2.249191789E1
8.917963708E0,-8.861572266E-1,-5.459147644E0,2.171444458E1,2.240769223E1
8.928004708E0,-1.321751404E0,-3.838318176E0,1.758857437E1,1.805097398E1
8.938045708E0,4.766088867E-1,-2.036814423E0,1.155686737E1,1.174465634E1
8.948085708E0,2.894081726E0,-2.324665833E-1,7.621401215E0,8.155703907E0
8.958126708E0,3.717818756E0,1.227297821E0,5.935606842E0,7.110546029E0
8.968167708E0,2.226020966E0,2.651286621E0,6.019881592E0,6.944311662E0
8.978208708E0,-6.753955078E-1,3.561094666E0,6.521189117E0,7.460794985E0
8.988249708E0,-3.522325287E0,3.864214325E0,6.416107635E0,8.276796782E0
8.998290708E0,-5.575306091E0,4.573289795E0,7.001989288E0,1.005121244E1
9.008330708E0,-7.290439453E0,6.008056183E0,7.710466003E0,1.219420077E1
9.018371708E0,-8.992549896E0,7.628436584E0,6.647975464E0,1.353715539E1
9.028412708E0,-8.191116486E0,8.266709290E0,3.293750610E0,1.209469573E1
9.038453708E0,-4.079017639E0,6.863227844E0,-2.186802521E0,8.277945796E0
9.048494708E0,-1.648671570E0,5.387297058E0,-6.353687439E0,8.491786126E0
9.058535708E0,-2.402503967E0,5.287604370E0,-7.125033417E0,9.192218801E0
9.068576708E0,-3.211272125E0,6.196813660E0,-2.406395874E0,7.382649206E0
9.078616708E0,-4.299359436E0,7.084318085E0,2.413580933E0,8.631189211E0
9.088657708E0,-3.261417847E0,5.949078827E0,8.362210693E0,1.076823815E1
9.098698708E0,-2.734064484E0,2.463277588E0,1.093431198E1,1.153698503E1
9.108739708E0,-3.908671875E0,1.796264648E-2,1.341330688E1,1.397121470E1
9.118780708E0,-3.541485443E0,-1.344504089E0,1.713247284E1,1.754626559E1
9.128821708E0,-4.186045074E0,-2.409090271E0,1.863444946E1,1.925017912E1
9.138862708E0,-3.993246002E0,-2.733765106E0,1.901151535E1,1.961777768E1
9.148902708E0,-1.905836792E0,-1.419348450E0,1.746178802E1,1.762273546E1
9.158943708E0,-7.649093628E-2,3.981719971E-1,1.431787582E1,1.432361546E1
9.168984708E0,-1.517843628E-1,1.102158051E0,1.056577835E1,1.062419235E1
9.179025708E0,-6.945556641E-1,1.385369110E0,7.113956451E0,7.280798825E0
9.189066708E0,-1.165925446E0,2.486030273E0,4.670437775E0,5.417814843E0
9.199107708E0,-2.583327942E0,4.576882324E0,4.414470062E0,6.863598254E0
9.209148708E0,-4.778213654E0,7.515271912E0,3.151546326E0,9.446845075E0
9.219188708E0,-4.620142365E0,8.782686310E0,-2.360291748E0,1.020060152E1
9.229229708E0,-1.511856079E0,7.007527771E0,-8.675060120E0,1.125379147E1
9.239270708E0,-9.517208862E-1,4.087699585E0,-1.674058777E1,1.725868881E1
9.249311708E0,-6.288273468E0,6.766828308E0,-1.263073425E1,1.564825218E1
9.259352708E0,-4.539160767E0,7.682174835E0,-2.919528809E0,9.388473738E0
9.269393708E0,-3.320694580E0,7.237898712E0,1.083746338E-1,7.964040138E0
9.279434708E0,-2.166145477E0,5.256169739E0,6.808591461E0,8.869973181E0
9.289474708E0,-2.443967743E0,1.285975800E0,1.345641724E1,1.373688017E1
9.299515708E0,-6.587950287E0,-1.444795532E0,1.879716110E1,1.997052299E1
9.309556708E0,-7.663164368E0,-2.954256592E0,2.284579193E1,2.427718948E1
9.319597708E0,-7.394473114E0,-3.286415863E0,2.156864777E1,2.303660844E1
9.329638708E0,-7.097939758E0,-2.076332245E0,1.951836136E1,2.087243001E1
9.339679708E0,-6.698570251E0,1.546284485E-1,1.699311264E1,1.826637979E1
9.349720708E0,-5.145400085E0,2.041754150E0,1.190639053E1,1.313034796E1
9.359760708E0,-3.798800354E0,2.717598724E0,5.725443878E0,7.388973850E0
9.369801708E0,-1.385668488E0,2.939287720E0,8.711883545E-2,3.250704408E0
9.379842708E0,1.490749969E0,3.488046570E0,-3.117866364E0,4.910182787E0
9.389883708E0,2.734812927E0,4.178860016E0,-4.135899353E0,6.484422583E0
9.399924708E0,2.903362427E0,4.482877808E0,-3.857178955E0,6.588136027E0
9.409965708E0,2.979404297E0,5.176385651E0,-3.954476624E0,7.163079208E0
9.420006708E0,5.003046112E0,7.537725220E0,-4.093687134E0,9.930057716E0
9.430046708E0,9.328900452E0,1.058658508E1,-7.336543579E0,1.590374293E1
9.440087708E0,1.235425919E1,1.154698792E1,-1.474239304E1,2.243432197E1
9.450128708E0,1.374307114E1,8.958121490E0,-2.178404984E1,2.727021768E1
9.460169708E0,9.594148865E0,6.249354401E0,-2.706476852E1,2.938713695E1
9.470210708E0,2.948867798E0,6.166127472E0,-2.144695084E1,2.250974566E1
9.480251708E0,2.404749298E0,5.842350769E0,-1.364382751E1,1.503562140E1
9.490292708E0,2.280807037E0,4.705764313E0,-8.554860077E0,1.002656120E1
9.500332708E0,3.339705048E0,4.215234375E-1,-3.913312225E0,5.161910924E0
9.510373708E0,4.830455017E0,-3.818559265E0,5.929170227E-1,6.185971317E0
9.520414708E0,5.753136292E0,-5.797294464E0,5.261109467E0,9.715270100E0
9.530455708E0,6.493347015E0,-7.397766266E0,9.752968597E0,1.385679969E1
9.540496708E0,3.742667084E0,-9.224118347E0,1.537991730E1,1.832031038E1
9.550537708E0,4.037104797E-1,-1.033810181E1,2.466121674E1,2.674350280E1
9.560578708E0,-2.894530792E0,-1.200638260E1,2.941802490E1,3.190535568E1
9.570618708E0,-2.746189270E0,-1.365714981E1,2.668530762E1,3.010257363E1
9.580659708E0,2.977158966E0,-1.345641724E1,1.932720886E1,2.373772615E1
9.590700708E0,7.528145142E0,-1.164668060E1,1.288445663E1,1.892953674E1
9.600741708E0,7.667355652E0,-7.789351959E0,1.117456238E1,1.563116090E1
9.610782708E0,5.286706238E0,-3.773203583E0,1.263881744E1,1.421006807E1
9.620823708E0,1.682351532E0,-2.147883453E0,1.434661606E1,1.460373590E1
9.630864708E0,-1.554517365E0,-6.048921204E-1,1.307516006E1,1.318113157E1
9.640904708E0,-1.186133423E0,2.521805878E0,9.981543274E0,1.036328247E1
9.650945708E0,2.043101349E0,4.446353760E0,5.975424042E0,7.723342370E0
9.660986708E0,4.389322357E0,2.348466339E0,-1.484463043E0,5.194716107E0
9.671027708E0,6.062393188E-2,7.794291687E-1,-9.570947113E0,9.602823217E0
9.681068708E0,3.106939087E0,1.921254730E0,-1.870061188E0,4.103829806E0
9.691109708E0,6.643784180E0,2.134561157E-1,1.216071167E0,6.757533635E0
9.701150708E0,7.568261719E0,-2.296674042E0,3.464844818E0,8.634723314E0
9.711190708E0,1.111289062E1,-5.912854156E0,8.614735565E0,1.525358486E1
9.721231708E0,1.414259033E1,-8.410260773E0,1.209395050E1,2.042079789E1
9.731272708E0,1.621667725E1,-1.013272888E1,1.319536011E1,2.323295814E1
9.741313708E0,1.535851181E1,-1.091949280E1,1.501018616E1,2.409200898E1
9.751354708E0,1.092248657E1,-8.928183746E0,1.711016922E1,2.217591190E1
9.761395708E0,6.203998718E0,-5.947731628E0,1.726345047E1,1.928449724E1
9.771436708E0,2.722837830E0,-3.418591003E0,1.512260239E1,1.574146477E1
9.781476708E0,3.288212128E0,-1.565744019E0,1.119611755E1,1.177356962E1
9.791517708E0,5.524561615E0,-7.014413452E-1,6.987170105E0,8.934950871E0
9.801558708E0,6.228248291E0,6.408174133E-1,6.444847870E0,8.985420847E0
9.811599708E0,5.482798462E0,2.369422760E0,7.325316925E0,9.451746465E0
9.821640708E0,3.122057648E0,3.791764984E0,8.655750275E0,9.952222790E0
9.831681708E0,8.934919739E-1,4.609364777E0,1.012778915E1,1.116318434E1
9.841722708E0,-1.166673889E0,5.217100983E0,1.075124268E1,1.200701835E1
9.851762708E0,-2.803669739E0,6.466403046E0,1.062236069E1,1.274792057E1
9.861803708E0,-3.004701691E0,8.086933136E0,9.212742004E0,1.262146327E1
9.871844708E0,-2.182162170E0,9.604477386E0,6.641239471E0,1.187913630E1
9.881885708E0,-7.319778442E-1,1.060260178E1,2.353855133E0,1.088538424E1
9.891926708E0,-4.161346436E-2,1.133892059E1,-2.081870728E0,1.152853146E1
9.901967708E0,-1.305135956E0,1.173589508E1,-5.389093323E0,1.297986672E1
9.912007708E0,-3.314407654E0,1.184786224E1,-6.271658020E0,1.380908513E1
9.922048708E0,-3.289409637E0,1.180340469E1,-3.393742676E0,1.271448259E1
9.932089708E0,-2.733166351E0,1.078597046E1,5.906716919E-1,1.114254235E1
9.942130708E0,-2.585423584E0,8.983418884E0,4.716092834E0,1.047032767E1
9.952171708E0,-2.764301605E0,6.749165039E0,9.496701508E0,1.197413594E1
9.962212708E0,-4.241130524E0,4.471351776E0,1.294253586E1,1.433490179E1
9.972253708E0,-5.805677032E0,3.487447815E0,1.459360245E1,1.608854905E1
9.982293708E0,-6.324198761E0,4.378694458E0,1.501467682E1,1.687035788E1
9.992335417E0,-6.477480011E0,5.780379639E0,1.389036484E1,1.638025553E1
1.000237642E1,-6.512656860E0,6.235283661E0,1.081186661E1,1.407799422E1
1.001241742E1,-6.422394562E0,6.724765778E0,7.430697784E0,1.190314648E1
1.002245842E1,-6.297853546E0,8.280031586E0,4.330644379E0,1.126837890E1
1.003249942E1,-6.473588104E0,8.701105957E0,2.674039307E0,1.116991826E1
1.004254042E1,-5.189258881E0,8.309220886E0,1.237177277E0,9.874318563E0
1.005258042E1,-3.928580475E0,7.659721527E0,2.300266571E0,8.910460410E0
1.006262142E1,-4.123175812E0,6.727909241E0,4.158951416E0,8.919765603E0
1.007266242E1,-4.808151398E0,5.790558472E0,6.003864899E0,9.627838854E0
1.008270342E1,-5.743406525E0,5.019062805E0,8.052654419E0,1.109157127E1
1.009274442E1,-4.908143463E0,4.799170074E0,1.003977219E1,1.216219270E1
1.010278542E1,-3.906127167E0,3.899391174E0,1.081590820E1,1.214277362E1
1.011282642E1,-3.835025024E0,2.767744446E0,1.175565399E1,1.267135459E1
1.012286642E1,-3.579057312E0,2.842439117E0,1.160731247E1,1.247472702E1
1.013290742E1,-3.210373993E0,3.739972687E0,1.068792435E1,1.176969089E1
1.014294842E1,-3.410956879E0,4.662354584E0,9.311835938E0,1.095821453E1
1.015298942E1,-3.633244629E0,5.336851959E0,7.960446167E0,1.024944674E1
1.016303042E1,-3.705993347E0,5.795498199E0,7.131919098E0,9.908907916E0
1.017307142E1,-3.767814789E0,6.215674438E0,6.852899323E0,9.989657959E0
1.018311242E1,-3.802392883E0,6.450236664E0,6.757996674E0,1.008634045E1
1.019315242E1,-3.819756775E0,6.550378418E0,6.567891998E0,1.003170995E1
1.020319342E1,-3.720812531E0,6.636150055E0,6.304589539E0,9.880829049E0
1.021323442E1,-3.657943268E0,6.625971222E0,6.187682648E0,9.776065678E0
1.022327542E1,-3.531605988E0,6.527326355E0,6.357429657E0,9.772161585E0
1.023331642E1,-3.374283142E0,6.430028687E0,6.494694214E0,9.742284566E0
1.024335742E1,-3.298989716E0,6.295608215E0,6.586004333E0,9.689864242E0
1.025339842E1,-2.980452118E0,6.230343933E0,6.839876404E0,9.720297813E0
1.026343842E1,-2.656825104E0,6.249204712E0,6.931635590E0,9.703548377E0
1.027347942E1,-2.572700043E0,6.223158875E0,6.891668701E0,9.635434052E0
1.028352042E1,-2.362387390E0,6.091283112E0,6.848857727E0,9.465276345E0
1.029356142E1,-2.160157928E0,6.009553070E0,6.852001190E0,9.366479098E0
1.030360242E1,-2.157613220E0,6.020779724E0,6.769971771E0,9.313302372E0
1.031364342E1,-2.236050110E0,6.167324982E0,6.697372742E0,9.374999689E0
1.032368442E1,-2.265239410E0,6.219266968E0,6.657705231E0,9.388057847E0
1.033372442E1,-2.226470032E0,6.140680389E0,6.688391418E0,9.348780895E0
1.034376542E1,-2.190694427E0,6.083798676E0,6.906188507E0,9.460823859E0
1.035380642E1,-1.997446289E0,6.001020813E0,7.302264862E0,9.660492461E0
1.036384742E1,-1.998943176E0,5.865851898E0,7.403155060E0,9.654568719E0
1.037388842E1,-2.228715363E0,5.770051117E0,7.584128723E0,9.786708872E0
1.038392942E1,-2.400258636E0,5.758974152E0,7.737110596E0,9.939311101E0
1.039397042E1,-2.469115448E0,5.818999329E0,7.507488098E0,9.814258088E0
1.040401042E1,-2.584525452E0,5.939798126E0,7.341483307E0,9.790727794E0
1.041405142E1,-2.796334991E0,6.042334900E0,7.217241669E0,9.819260549E0
1.042409242E1,-2.791844330E0,6.045478363E0,6.979535980E0,9.646560314E0
1.043413342E1,-3.017574921E0,6.143075409E0,6.465953979E0,9.415502894E0
1.044417442E1,-3.048560486E0,6.325695648E0,6.472989349E0,9.550274215E0
1.045421542E1,-3.147953796E0,6.383176117E0,6.556964722E0,9.677207077E0
1.046425642E1,-3.173251190E0,6.355932770E0,6.599626007E0,9.696518340E0
1.047429642E1,-3.125949554E0,6.282585297E0,6.615343323E0,9.643920671E0
1.048433742E1,-2.927761688E0,6.189628601E0,6.575675812E0,9.493303066E0
1.049437842E1,-3.403622131E0,6.056255951E0,7.576045532E0,1.027907319E1
1.050441942E1,-3.387006683E0,6.171815643E0,7.721393280E0,1.044906870E1
1.051446042E1,-3.070115662E0,6.293213196E0,7.396718445E0,1.018536137E1
1.052450142E1,-3.327280884E0,6.272855530E0,7.519463196E0,1.034223580E1
1.053454242E1,-3.154390411E0,6.187083893E0,7.168143768E0,9.980604744E0
1.054458242E1,-2.977458344E0,6.194119263E0,7.141948242E0,9.911599080E0
1.055462342E1,-2.931952972E0,6.215375061E0,7.300318909E0,1.002606062E1
1.056466442E1,-2.969524841E0,6.158643036E0,7.363337860E0,1.004816930E1
1.057470542E1,-2.994073792E0,6.074368286E0,7.421716461E0,1.004710422E1
1.058474642E1,-3.008443909E0,5.990991669E0,7.368726654E0,9.961970108E0
1.059478742E1,-2.946622467E0,5.907315674E0,7.319928131E0,9.856992963E0
1.060482842E1,-2.936593323E0,5.914201355E0,7.263794861E0,9.816520452E0
1.061486842E1,-2.973716125E0,5.880970459E0,7.100334778E0,9.687288325E0
1.062490942E1,-3.004102936E0,5.785169678E0,7.105873260E0,9.642938216E0
1.063495042E1,-3.052751770E0,5.741011505E0,7.324867859E0,9.794498232E0
1.064499142E1,-3.122806091E0,5.667364655E0,7.510182495E0,9.913313327E0
1.065503242E1,-3.113076324E0,5.613776093E0,7.569010162E0,9.924497018E0
1.066507342E1,-2.990930328E0,5.627248077E0,7.532486115E0,9.866606925E0
1.067511442E1,-2.900518341E0,5.740113373E0,7.427404633E0,9.824879020E0
1.068515442E1,-2.834505615E0,5.847739563E0,7.241640930E0,9.729945706E0
1.069519542E1,-2.747835846E0,5.958209839E0,7.049290924E0,9.630335864E0
1.070523642E1,-2.666255493E0,6.085894318E0,6.865622864E0,9.554255874E0
1.071527742E1,-2.663411407E0,6.142776031E0,6.708599396E0,9.478014747E0
1.072531842E1,-2.694396973E0,6.136489105E0,6.724466400E0,9.493930796E0
1.073535942E1,-2.711461487E0,6.152655487E0,6.815926208E0,9.574134061E0
1.074539942E1,-2.673290863E0,6.207142181E0,6.943760376E0,9.689732001E0
1.075544042E1,-2.656675415E0,6.245013428E0,7.074139252E0,9.803140473E0
1.076548142E1,-2.707419891E0,6.199358368E0,7.173233185E0,9.859890515E0
1.077552242E1,-2.725981293E0,6.080505524E0,7.245832214E0,9.844064502E0
1.078556342E1,-2.808759155E0,5.964945831E0,7.262148285E0,9.808593399E0
1.079560442E1,-2.782713318E0,5.935606842E0,7.223977661E0,9.755038454E0
1.080564542E1,-2.738854523E0,5.956114197E0,7.213499451E0,9.747368606E0
1.081568542E1,-2.733615417E0,5.983806610E0,7.209158478E0,9.759639376E0
1.082572642E1,-2.857707367E0,6.014193420E0,7.162754974E0,9.779676514E0
1.083576742E1,-3.003354492E0,5.999972992E0,7.215146027E0,9.852824280E0
1.084580842E1,-2.982098694E0,5.968538361E0,7.410340118E0,9.971434373E0
1.085584942E1,-2.914888458E0,5.964496765E0,7.612419891E0,1.010053132E1
1.086589042E1,-2.843786316E0,5.957461395E0,7.678133240E0,1.012581833E1
1.087593142E1,-2.838397522E0,5.952671356E0,7.629484406E0,1.008463331E1
1.088597142E1,-2.815195770E0,5.934708710E0,7.528743896E0,9.991400270E0
1.089601242E1,-2.778671722E0,5.889802094E0,7.439978485E0,9.887571244E0
1.090605342E1,-2.719245300E0,5.854026489E0,7.371121674E0,9.797824037E0
1.091609442E1,-2.725232849E0,5.823489990E0,7.284002838E0,9.715792664E0
1.092613542E1,-2.713856506E0,5.768254852E0,7.216193848E0,9.628667344E0
1.093617642E1,-2.770139465E0,5.730533295E0,7.257507935E0,9.653191489E0
1.094621742E1,-2.843486938E0,5.699098663E0,7.325017548E0,9.706751548E0
1.095625742E1,-2.832709351E0,5.664670258E0,7.319329376E0,9.679117414E0
1.096629842E1,-2.839744720E0,5.594615936E0,7.355404358E0,9.667773830E0
1.097633942E1,-2.897973633E0,5.583688660E0,7.386240234E0,9.702184034E0
1.098637967E1,-2.885399780E0,5.614374847E0,7.341782684E0,9.682381412E0
1.099642067E1,-2.796185303E0,5.679040375E0,7.259902954E0,9.632047691E0
1.100646167E1,-2.725232849E0,5.751190338E0,7.202572174E0,9.611458282E0
1.101650267E1,-2.669997711E0,5.807323608E0,7.221283264E0,9.643693652E0
1.102654267E1,-2.636317749E0,5.764961700E0,7.135960693E0,9.544992912E0
1.103658367E1,-2.773432617E0,5.611830139E0,6.188580780E0,8.802448413E0
1.104662467E1,-2.977608032E0,5.915548553E0,6.033652954E0,8.959064251E0
1.105666567E1,-2.893482971E0,6.255791016E0,7.828121338E0,1.043008383E1
1.106670667E1,-3.075205078E0,6.090684357E0,7.848179626E0,1.039938679E1
1.107674767E1,-3.177592163E0,5.958359528E0,7.945028229E0,1.042701366E1
1.108678867E1,-3.247496796E0,5.981860657E0,7.904761963E0,1.043140230E1
1.109682867E1,-3.137924652E0,5.855373688E0,7.652985535E0,1.013410873E1
1.110686967E1,-3.373385010E0,5.928122406E0,7.505093079E0,1.014143894E1