"Time (s)","Acceleration x (m/s^2)","Acceleration y (m/s^2)","Acceleration z (m/s^2)","Absolute acceleration (m/s^2)"
1.570833265E-4,3.993246002E0,6.299200745E0,7.504344635E0,1.058022363E1
1.019708335E-2,3.723207550E0,6.418203278E0,7.643106079E0,1.065235553E1
2.023808332E-2,3.286864929E0,6.578370209E0,7.401059418E0,1.043331760E1
3.027908335E-2,2.959944763E0,6.634204102E0,7.237000580E0,1.025417546E1
4.032008332E-2,2.890489197E0,7.230114899E0,7.043153687E0,1.049930965E1
5.036108335E-2,2.872825928E0,6.696324921E0,6.803352356E0,9.968926699E0
6.040108332E-2,2.445764008E0,5.668711853E0,6.734645233E0,9.136273971E0
7.044208335E-2,1.884880371E0,4.895270233E0,7.101382599E0,8.828707691E0
8.048308332E-2,2.284549255E0,4.586911469E0,7.078330536E0,8.738517340E0
9.052408335E-2,3.444636841E0,4.575385437E0,6.808292084E0,8.896769973E0
1.005650833E-1,3.737278290E0,4.752317505E0,7.435787201E0,9.583459813E0
1.106050833E-1,3.716621246E0,4.678670654E0,8.071964264E0,1.004289996E1
1.206460833E-1,2.629731445E0,4.934788055E0,8.797355804E0,1.042406302E1
1.306870834E-1,5.794450378E-1,5.948330383E0,9.485325165E0,1.121114554E1
1.407280833E-1,-1.467997284E0,6.516698456E0,9.438622284E0,1.156330253E1
1.507690834E-1,-2.102378082E0,6.120472412E0,8.738677826E0,1.087403634E1
1.608090833E-1,-2.134411469E0,5.251529388E0,8.368796997E0,1.010796896E1
1.708500833E-1,-1.690584412E0,3.687132568E0,9.566306763E0,1.039072891E1
1.808910833E-1,-5.084925842E-1,2.030078430E0,9.570348358E0,9.796496866E0
1.909320834E-1,1.542991333E0,2.692900085E0,8.170010376E0,8.739656896E0
2.009730833E-1,2.222877502E0,4.106260986E0,8.546327820E0,9.738700267E0
2.110130833E-1,2.536475372E0,5.059478760E0,8.724457397E0,1.039943217E1
2.210540833E-1,2.310295715E0,5.595963135E0,8.639883270E0,1.054987453E1
2.310950833E-1,1.839375000E0,6.028114471E0,8.339308319E0,1.045301525E1
2.411360833E-1,1.481918335E0,5.890101471E0,8.150700531E0,1.016480676E1
2.511770834E-1,1.634002075E0,6.324797516E0,7.544760590E0,9.979801539E0
2.612170833E-1,1.326391754E0,7.078929291E0,8.069718933E0,1.081623403E1
2.712580833E-1,7.568261719E-1,8.318052521E0,9.408085785E0,1.258073375E1
2.812990833E-1,-3.007246399E-1,8.638386383E0,1.043719574E1,1.355164970E1
2.913400833E-1,-9.187893677E-1,8.442443848E0,1.110196335E1,1.397757569E1
3.013810833E-1,1.162332916E0,7.175927582E0,9.880802765E0,1.226683406E1
3.114210833E-1,3.805236969E0,5.600453796E0,7.558531952E0,1.014772469E1
3.214620833E-1,8.791667633E0,4.441713409E0,6.972650299E0,1.206814360E1
3.315030833E-1,8.611592102E0,4.942422180E0,5.361251221E0,1.128406266E1
3.415440833E-1,6.150709534E0,8.881630554E0,4.679119720E0,1.177322175E1
3.515850834E-1,5.081932068E0,1.177930481E1,3.737877045E0,1.336225206E1
3.616250833E-1,4.274211731E0,1.036324951E1,3.302282867E0,1.168635523E1
3.716660833E-1,3.200644226E0,7.121141510E0,3.957021332E0,8.752873682E0
3.817070833E-1,2.312091980E0,6.389912109E0,4.534071350E0,8.169121685E0
3.917480833E-1,3.407364349E0,7.934250641E0,4.140988770E0,9.576547031E0
4.017890833E-1,6.821464691E0,9.650282135E0,2.862796783E0,1.215960243E1
4.118290833E-1,1.163320862E1,1.150866760E1,-3.929927673E0,1.682929898E1
4.218700833E-1,1.590053467E1,8.471633148E0,-1.080632812E1,2.100886238E1
4.319110833E-1,1.663520691E1,6.831044769E0,-1.789468781E1,2.536953159E1
4.419520833E-1,8.712482300E0,3.500321045E0,-1.973406281E1,2.185389737E1
4.519930833E-1,-2.387235718E0,4.193978577E0,-1.580847610E1,1.652864990E1
4.620330833E-1,-8.617280273E0,3.948489075E0,-8.549171906E0,1.276465532E1
4.720740833E-1,-9.284742279E0,2.810854797E0,1.067579956E0,9.759460582E0
4.821150833E-1,-5.365292816E0,3.829037476E0,7.996820526E0,1.036325400E1
4.921560833E-1,-6.973997498E-1,2.009122009E0,1.454420517E1,1.469887212E1
5.021970833E-1,-1.254840546E0,-4.188290405E-1,2.355217300E1,2.358929621E1
5.122370833E-1,-4.872367859E0,7.147636414E-1,3.251209076E1,3.288292720E1
5.222780833E-1,-4.722080383E0,2.082170105E-1,3.423201416E1,3.455679660E1
5.323190833E-1,-2.487826538E0,-1.160536652E0,2.855042908E1,2.868210464E1
5.423600833E-1,-2.413431244E0,-7.077282715E-1,1.966266129E1,1.982286000E1
5.524010833E-1,-5.559738464E0,-2.014211426E0,6.724167023E0,8.954449263E0
5.624410833E-1,-6.951244812E0,-2.586321716E0,-1.527812897E1,1.698322965E1
5.724820833E-1,-3.932472382E0,1.900897064E0,-3.417064178E1,3.444866483E1
5.825230833E-1,-4.050876160E0,3.525169373E0,-3.490800842E1,3.531862779E1
5.925640833E-1,-9.170080719E0,1.297052765E0,-2.464534973E1,2.632804569E1
6.026050833E-1,-6.396049347E0,2.411036224E0,-1.427296921E1,1.582530230E1
6.126450833E-1,-8.175997925E-1,3.111579437E0,-7.128925323E0,7.821251325E0
6.226860833E-1,8.521778870E-1,1.418150940E0,-2.033970337E0,2.621906667E0
6.327270833E-1,6.646179199E-2,-5.993536377E-1,4.211192780E0,4.254149337E0
6.427680833E-1,-3.462150421E0,-2.550995178E0,1.961491058E1,2.008080624E1
6.528090833E-1,-7.558981018E0,1.592687988E-1,3.326891693E1,3.411721551E1
6.628490833E-1,-4.667593689E0,2.171085205E0,3.672103821E1,3.708011177E1
6.728900833E-1,-4.813989258E-1,4.263583832E0,3.471925095E1,3.498337145E1
6.829310833E-1,1.775757294E0,8.296647034E0,2.746309021E1,2.874385134E1
6.929720833E-1,8.717871094E-1,5.843548279E0,1.580503326E1,1.687323756E1
7.030120833E-1,4.757107544E-1,-2.426454163E-1,-4.428391113E0,4.460473671E0
7.130530833E-1,-9.565109253E-1,3.350632324E0,-2.462978210E1,2.487504405E1
7.230940833E-1,-9.704170074E0,9.609117737E0,-3.217858429E1,3.495664954E1
7.331350833E-1,-1.526735138E1,7.908504181E0,-2.560709976E1,3.084412448E1
7.431760833E-1,-1.574216400E1,5.739364929E0,-1.416713928E1,2.194228504E1
7.532160833E-1,-1.107217529E1,5.151986389E0,-6.429729309E0,1.380135676E1
7.632572083E-1,-6.189628601E0,4.858297119E0,2.839595032E-1,7.873702186E0
7.732982083E-1,-4.596192169E0,3.355272675E0,1.550370987E1,1.651507968E1
7.833392083E-1,-4.562661896E0,1.111738129E0,3.436972778E1,3.468907657E1
7.933802083E-1,-6.656358032E0,-2.187550964E0,4.677922211E1,4.730103701E1
8.034212083E-1,-1.050590286E1,6.614744568E-1,5.318709686E1,5.421880500E1
8.134612083E-1,-7.231611786E0,6.030958557E0,5.057907028E1,5.144813914E1
8.235022083E-1,1.861828308E0,5.637726288E0,4.205714172E1,4.247415134E1
8.335432083E-1,6.373296661E0,-4.650529175E0,2.544902847E1,2.664393706E1
8.435842083E-1,6.297853546E0,-8.463849335E0,-1.021475830E0,1.059920364E1
8.536252083E-1,2.043400726E0,1.303190002E0,-2.276421158E1,2.289286176E1
8.636652083E-1,-5.992488556E0,7.067103882E0,-2.881238434E1,3.026561362E1
8.737062083E-1,-8.211174774E0,6.587351532E0,-2.380978729E1,2.603310512E1
8.837472083E-1,-4.192182312E0,6.634802856E0,-1.456935287E1,1.654874753E1
8.937882083E-1,2.469863892E-1,8.241860962E0,-8.288713531E0,1.169153738E1
9.038292083E-1,4.002227325E0,8.610095215E0,-2.667453003E0,9.862396701E0
9.138692083E-1,4.704866180E0,5.766009521E0,9.948911133E0,1.242430941E1
9.239102083E-1,1.489402771E0,3.389850769E0,2.953972183E1,2.977086789E1
9.339512083E-1,-6.858737183E-1,1.862277374E0,4.365791290E1,4.370299599E1
9.439922083E-1,5.327571259E0,4.776417389E0,4.620172302E1,4.675250142E1
9.540332083E-1,1.363724121E1,6.058201904E0,3.885170746E1,4.161888190E1
9.640732083E-1,1.612791183E1,2.800675964E-1,2.520159302E1,2.992170230E1
9.741142083E-1,7.685767365E0,-1.132484985E1,4.612657928E0,1.444298644E1
9.841552083E-1,-4.436623993E0,-9.780810699E0,-1.743544281E1,2.047785527E1
9.941962083E-1,-1.593032272E1,-3.503614197E0,-2.803549988E1,3.243516222E1
1.004237208E0,-2.210677872E1,-4.010460205E0,-2.805466003E1,3.594241792E1
1.014277208E0,-1.729503479E1,-2.203268280E0,-2.216066666E1,2.819694604E1
1.024318208E0,-8.117619324E0,1.703757019E0,-1.680061295E1,1.873657191E1
1.034359208E0,1.511407013E0,5.333708496E0,-1.212284042E1,1.333026847E1
1.044400208E0,9.013656006E0,4.909191284E0,-6.913672943E0,1.237517787E1
1.054441208E0,1.107382187E1,2.892435150E0,2.049238586E0,1.162734237E1
1.064481208E0,9.142987061E0,3.059188385E0,1.969484436E1,2.192805829E1
1.074522208E0,8.610993347E0,3.960763550E0,3.724285309E1,3.843002681E1
1.084563208E0,1.250334915E1,6.829697571E0,4.315765320E1,4.544844924E1
1.094604208E0,1.818702988E1,1.110914841E1,3.959955231E1,4.497005422E1
1.104645208E0,1.964769241E1,6.092480621E0,3.011063461E1,3.646642914E1
1.114685208E0,1.055095917E1,-8.327482910E0,1.618808670E1,2.104100430E1
1.124726208E0,-4.114793243E0,-1.623269394E1,-1.609602814E0,1.682327843E1
1.134767208E0,-1.470541992E1,-1.209679459E1,-1.949426147E1,2.725083567E1
1.144808208E0,-1.468461319E1,-9.909692688E0,-3.232138733E1,3.685799713E1
1.154849208E0,-5.595663757E0,-7.071594543E0,-3.448259308E1,3.564222394E1
1.164889208E0,4.952900391E0,-1.925146637E0,-3.399999664E1,3.441274740E1
1.174930208E0,1.487022720E1,2.394720154E0,-3.158611633E1,3.499344348E1
1.184971208E0,2.252455994E1,2.478845215E-1,-2.424807587E1,3.309662264E1
1.195012208E0,2.413296524E1,-5.831124115E0,-1.229812592E1,2.770642382E1
1.205053208E0,2.434058350E1,-5.409151611E0,5.604495392E0,2.555647266E1
1.215093208E0,2.949646179E1,6.264472961E-1,2.677137863E1,3.983893081E1
1.225134208E0,3.817212067E1,8.962911530E0,4.307068405E1,5.824541530E1
1.235175208E0,4.077490814E1,1.368888382E1,4.355357986E1,6.121186971E1
1.245216208E0,3.207874191E1,8.511450348E0,3.058918945E1,4.513522993E1
1.255257208E0,1.662398026E1,-7.385491791E0,1.411744263E1,2.302616761E1
1.265297208E0,-2.876717834E0,-1.981040405E1,-2.896327057E0,2.022662415E1
1.275338208E0,-2.114338211E1,-1.540850784E1,-2.054298065E1,3.326377572E1
1.285379208E0,-2.416335205E1,-9.903854828E0,-3.617587189E1,4.461667434E1
1.295420208E0,-1.372151596E1,-9.318871307E0,-3.616569305E1,3.978792175E1
1.305461208E0,-1.200653229E0,-5.936055908E0,-2.509785873E1,2.581822691E1
1.315502208E0,9.405541077E0,-1.710942078E0,-1.632160904E1,1.891524378E1
1.325542208E0,1.950773346E1,1.936822357E0,-1.016296600E1,2.208141353E1
1.335583208E0,2.637395508E1,1.752555542E0,-3.036286011E0,2.660593900E1
1.345624208E0,2.842588806E1,2.434387665E0,8.301736450E0,2.971323246E1
1.355665208E0,2.639595932E1,7.455995178E0,2.350532043E1,3.612255004E1
1.365706208E0,2.244163239E1,1.025607239E1,3.233755371E1,4.067592980E1
1.375746208E0,1.777433807E1,9.113947449E0,2.927552124E1,3.544075727E1
1.385787208E0,1.070618637E1,6.959028625E0,2.119113281E1,2.474095018E1
1.395828208E0,-3.005001068E0,-2.833757172E0,7.053631897E0,8.173979084E0
1.405869208E0,-1.860765518E1,-8.450826416E0,-1.515119293E1,2.544051780E1
1.415910208E0,-2.384271881E1,-3.140918427E0,-2.995974838E1,3.841779707E1
1.425950208E0,-2.506013718E1,-7.180268555E0,-3.508838333E1,4.371225660E1
1.435991208E0,-2.116538635E1,-1.016685791E1,-2.738330612E1,3.607192861E1
1.446032208E0,-1.487052658E1,-1.237850876E1,-1.558588898E1,2.484511974E1
1.456073208E0,-1.044213547E1,-1.311138474E1,-4.610113220E0,1.738389331E1
1.466114208E0,-2.008972321E0,-1.092997101E1,6.397995300E0,1.282320474E1
1.476154208E0,9.295370178E0,-7.267088013E0,1.614707199E1,1.999856017E1
1.486195208E0,1.678160248E1,-4.079466705E0,2.770124496E1,3.264388462E1
1.496236208E0,1.481903366E1,-2.234403534E0,4.292249222E1,4.546357505E1
1.506277208E0,6.907236328E0,-1.679806824E0,5.101032349E1,5.150325006E1
1.516318208E0,-4.981640625E-1,-4.293671265E0,4.528577774E1,4.549159753E1
1.526358208E0,-5.930367737E0,-4.666396179E0,3.634097855E1,3.711618564E1
1.536399208E0,-6.979685669E0,-2.869532776E0,3.033876022E1,3.126324683E1
1.546440208E0,-3.147055664E0,-2.191742249E0,2.474803619E1,2.504342207E1
1.556481208E0,-3.507057037E0,-5.785319366E0,1.538575516E1,1.680746355E1
1.566522208E0,-7.775580597E0,-9.283694458E0,1.396446075E0,1.219002453E1
1.576562208E0,-1.164218994E1,-8.319399719E0,-1.092233688E1,1.800140109E1
1.586603208E0,-1.426533508E1,-8.753047943E0,-1.876078674E1,2.514125599E1
1.596644208E0,-9.792636108E0,-1.004426285E1,-1.946387466E1,2.399219363E1
1.606685208E0,7.845185852E-1,-7.593409424E0,-1.407567947E1,1.601249789E1
1.616726208E0,1.340148148E1,-3.924239502E0,-3.039579163E0,1.429120019E1
1.626767208E0,2.934093521E1,-2.629731445E0,1.428224991E1,3.273818304E1
1.636807208E0,5.278847580E1,2.544708252E0,3.640040497E1,6.417233204E1
1.646848208E0,6.164241394E1,7.782466278E0,4.682158401E1,7.779855209E1
1.656889208E0,4.560341721E1,1.139864639E1,4.215144562E1,6.313750999E1
1.666930208E0,2.511656982E1,5.616769867E0,3.234758286E1,4.133710561E1
1.676971208E0,1.089748856E1,-1.530896484E1,2.048729645E1,2.780016146E1
1.687011208E0,-1.090916428E1,-2.781979843E1,4.662803650E0,3.024388844E1
1.697052208E0,-3.946812561E1,-9.319919128E0,-9.883497162E0,4.174059592E1
1.707093208E0,-4.426325409E1,-4.256698151E0,-1.583347412E1,4.720226737E1
1.717134208E0,-3.558205673E1,-1.199021622E1,-4.799319763E0,3.785342146E1
1.727175208E0,-2.836616226E1,-1.556553131E1,6.591842194E0,3.302086174E1
1.737215208E0,-1.688339081E1,-1.856319763E1,1.058538757E1,2.723401589E1
1.747256208E0,-2.589614868E-2,-1.943947540E1,1.290047333E1,2.333058265E1
1.757297292E0,2.223895386E1,-1.111857880E1,1.482427277E1,2.894741657E1
1.767338292E0,4.613121964E1,3.735032959E0,2.075898148E1,5.072450303E1
1.777379292E0,6.038547775E1,1.300256104E1,2.506762161E1,6.666226946E1
1.787419292E0,5.317736710E1,1.514026566E1,2.280477722E1,5.980901169E1
1.797460292E0,3.277045349E1,9.895621948E0,1.844943420E1,3.888711327E1
1.807501292E0,1.566237991E1,3.870650940E0,1.694221848E1,2.339510312E1
1.817542292E0,7.817792816E0,-1.698068848E0,1.299986664E1,1.526426726E1
1.827583292E0,2.273322601E0,-9.360634460E0,-5.303171997E0,1.099604958E1
1.837623292E0,-9.437873840E0,-6.879543915E0,-2.914020264E1,3.139351839E1
1.847664292E0,-2.105461670E1,-6.860683136E0,-3.457719635E1,4.106030157E1
1.857705292E0,-2.663291656E1,-1.647548904E1,-2.028761169E1,3.731408812E1
1.867746292E0,-2.501223679E1,-2.122930344E1,-5.779481506E0,3.331212572E1
1.877787292E0,-1.239991425E1,-2.339065887E1,3.727249146E-1,2.647677699E1
1.887827292E0,3.658092957E0,-2.915591995E1,5.390590210E0,2.987486862E1
1.897868292E0,1.316302734E1,-3.271252396E1,1.314311874E1,3.763131785E1
1.907909292E0,1.804766968E1,-2.385604111E1,3.443663864E1,4.561481293E1
1.917950292E0,2.893752411E1,-1.196731384E1,7.056895111E1,7.720475221E1
1.927991292E0,3.915602463E1,-8.982969818E0,8.496137192E1,9.398043802E1
1.938032292E0,3.284469910E1,-1.710223572E1,6.018010483E1,7.066049634E1
1.948072292E0,2.038505905E1,-2.819042770E1,3.277778824E1,4.779784774E1
1.958113292E0,1.042926224E1,-3.601944717E1,1.777553558E1,4.149867168E1
1.968154292E0,2.961291962E0,-3.548206467E1,9.035360870E0,3.673396125E1
1.978195292E0,4.327500916E-1,-2.640030029E1,1.858984222E0,2.646920759E1
1.988236292E0,2.696043549E0,-1.720282654E1,-5.235363007E0,1.818281930E1
1.998276292E0,-1.777104492E0,-1.453687042E1,-1.314671127E1,1.968031299E1
2.008317292E0,-1.248957779E1,-1.094868210E1,-2.232667145E1,2.782702735E1
2.018358292E0,-1.540536438E1,-4.842579803E0,-2.986275009E1,3.394936927E1
2.028399292E0,-1.085063599E1,-8.303233337E-1,-2.929438202E1,3.125038489E1
2.038440292E0,-6.627767487E0,-5.505551147E-1,-2.412518143E1,2.502508325E1
2.048480292E0,-5.832022247E0,-2.830464020E0,-1.801788162E1,1.914857875E1
2.058521292E0,-1.042432251E1,-5.724096680E0,-1.188947571E1,1.681640316E1
2.068562292E0,-1.838327179E1,-6.165528717E0,-5.320685577E0,2.010641990E1
2.078603292E0,-2.101599701E1,-4.859045563E0,4.059707794E0,2.194911573E1
2.088644292E0,-1.820604034E1,-3.335064697E0,1.708591965E1,2.518950598E1
2.098685292E0,-1.553768921E1,-2.014510803E0,3.152908493E1,3.520740315E1
2.108725292E0,-1.527708115E1,-3.162323914E0,3.731156021E1,4.044183510E1
2.118766292E0,-1.974424164E1,-4.408183136E0,3.014880524E1,3.630726668E1
2.128807292E0,-2.779944077E1,-2.328557739E0,1.666259995E1,3.249420448E1
2.138848292E0,-3.597543869E1,5.592370605E-1,-2.748584290E0,3.608461792E1
2.148889292E0,-3.540587311E1,6.013894043E0,-2.950514374E1,4.647898750E1
2.158929292E0,-1.972448273E1,9.410480804E0,-4.649915451E1,5.137882577E1
2.168970292E0,-8.500672760E0,7.757917328E0,-4.325315460E1,4.475803952E1
2.179011292E0,-8.450826416E0,6.768474884E0,-2.546564392E1,2.767178599E1
2.189052292E0,-1.248508713E1,7.668253784E0,-6.844666443E0,1.617185751E1
2.199093292E0,-1.555355621E1,1.298908905E1,9.848769379E0,2.253059705E1
2.209133292E0,-1.047940796E1,1.753124359E1,2.792817307E1,3.459978820E1
2.219174292E0,-2.361938324E0,1.076127182E1,4.214396118E1,4.356027075E1
2.229215292E0,-7.406597900E0,1.066232758E0,4.326932098E1,4.391160078E1
2.239256292E0,-3.145124680E1,-5.164560242E0,4.368081528E1,5.407279566E1
2.249297292E0,-5.162060440E1,-6.828050995E0,5.109175415E1,7.294982126E1
2.259337292E0,-4.224500107E1,-1.591056381E1,5.309039795E1,6.968770703E1
2.269378292E0,-2.262140854E1,-2.596635269E1,4.101470947E1,5.355544780E1
2.279419292E0,-1.480825607E1,-2.888692932E1,1.953243210E1,3.788475996E1
2.289460292E0,-8.719817047E0,-2.652109909E1,-5.088218994E0,2.837770038E1
2.299501292E0,-6.463558960E-1,-1.223435852E1,-4.064228394E1,4.244870490E1
2.309541292E0,2.123768600E1,5.646857300E0,-6.479845093E1,6.842342835E1
2.319582292E0,3.738924866E1,6.481521606E0,-6.139827164E1,7.217834715E1
2.329623292E0,3.242721725E1,6.025120697E0,-4.919220428E1,5.922583440E1
2.339664292E0,1.911435150E1,7.243886261E0,-3.515274948E1,4.066384288E1
2.349705292E0,6.011798401E0,5.136418762E0,-2.227772324E1,2.363940503E1
2.359745292E0,-4.172872467E0,-2.773731995E-1,-1.572435104E1,1.627098695E1
2.369786292E0,-1.000100281E1,-5.750142517E0,-1.438942703E1,1.844287956E1
2.379827292E0,-1.240260864E1,-8.872499542E0,-1.505808655E1,2.143109703E1
2.389868292E0,-1.589724152E1,-1.103041214E1,-1.299313065E1,2.330694583E1
2.399909292E0,-1.741822861E1,-9.958042145E0,-1.851050720E0,2.014903670E1
2.409950292E0,-6.516997833E0,-8.073161774E0,1.423794205E1,1.761721305E1
2.419990292E0,1.821861420E1,-7.229216766E0,3.351769958E1,3.882802678E1
2.430031292E0,4.438165787E1,-4.480632477E0,3.935645782E1,5.948729608E1
2.440072292E0,5.192596939E1,9.168434143E-1,2.759047531E1,5.880800309E1
2.450113292E0,4.351855270E1,-2.688409424E-1,9.961035919E0,4.464480867E1
2.460154292E0,2.637635010E1,-1.843057343E1,-9.010362854E0,3.341533361E1
2.470194292E0,9.965975647E0,-3.268917252E1,-2.968521927E1,4.526715049E1
2.480235292E0,-4.172872467E0,-2.533242096E1,-3.987333298E1,4.742390852E1
2.490276292E0,-1.713426910E1,-1.063313828E1,-4.225278488E1,4.681820840E1
2.500317292E0,-1.774080780E1,-1.171853119E1,-4.853566956E1,5.298840867E1
2.510358292E0,-3.458258514E0,-1.587688385E1,-4.918876144E1,5.180317794E1
2.520398292E0,6.418352966E0,-1.781400558E1,-4.057222961E1,4.477320477E1
2.530439292E0,1.197614548E1,-2.040646454E1,-2.936308914E1,3.770998355E1
2.540480292E0,1.402373749E1,-2.194706085E1,-1.871902359E1,3.207398537E1
2.550521292E0,1.110944778E1,-2.053085587E1,-1.026699966E1,2.550190492E1
2.560562292E0,7.335346069E0,-1.729503479E1,-5.605243835E0,1.960470068E1
2.570603292E0,5.044210510E0,-1.471859253E1,-3.384312286E0,1.592276971E1
2.580643292E0,4.561913452E0,-1.125808868E1,-2.013762360E0,1.231303594E1
2.590684292E0,4.909790039E0,-8.920399933E0,-2.528242493E-1,1.018545499E1
2.600725292E0,4.925806732E0,-8.452323303E0,1.051862640E0,9.839296530E0
2.610766292E0,4.355941772E0,-1.078357544E1,8.101153564E-1,1.165830240E1
2.620807292E0,4.217928772E0,-1.684761520E1,2.961741028E0,1.761831351E1
2.630847292E0,4.332740021E0,-2.833906860E1,1.288894730E1,3.143247378E1
2.640888292E0,4.304598541E0,-4.199636810E1,3.054518097E1,5.210789367E1
2.650929292E0,1.013991394E0,-5.182223511E1,5.102080170E1,7.273028555E1
2.660970292E0,-1.412732208E1,-5.788238297E1,6.700426392E1,8.966338645E1
2.671011292E0,-3.505185928E1,-6.306415741E1,7.478957428E1,1.039192052E2
2.681052292E0,-4.696079453E1,-6.655280273E1,7.436520676E1,1.102940422E2
2.691092292E0,-4.734938644E1,-6.721128342E1,6.731875992E1,1.062597593E2
2.701133292E0,-4.353950912E1,-6.622034409E1,5.249194244E1,9.505907030E1
2.711174292E0,-3.699392075E1,-6.304005753E1,3.754387711E1,8.217141676E1
2.721215292E0,-2.537852509E1,-6.222784653E1,2.881028870E1,7.311912987E1
2.731256292E0,-1.464374817E1,-6.339257446E1,2.164708466E1,6.856860894E1
2.741297292E0,-6.049519958E0,-6.596138260E1,1.627894775E1,6.820927229E1
2.751337292E0,4.644841003E0,-6.995777206E1,1.486708374E1,7.167073740E1
2.761377458E0,1.748933075E1,-7.529267807E1,1.453986420E1,7.865285571E1
2.771418458E0,3.188848755E1,-7.881425491E1,1.275707153E1,8.597270084E1
2.781459458E0,4.760116287E1,-7.933681824E1,8.616531830E0,9.292172004E1
2.791500458E0,6.761888580E1,-7.360478806E1,2.369273071E0,9.997795755E1
2.801540458E0,8.516494858E1,-5.735173645E1,-2.857557678E0,1.027154116E2
2.811581458E0,9.343989075E1,-3.603052414E1,2.858006744E0,1.001867259E2
2.821622458E0,9.197758163E1,-1.950818253E1,2.128214355E1,9.640214906E1
2.831663458E0,8.432160233E1,-6.916816406E0,4.460409531E1,9.564256524E1
2.841704458E0,7.322128555E1,3.381468201E0,5.495791443E1,9.161420929E1
2.851745458E0,7.286981644E1,7.307354279E0,4.184697876E1,8.434795318E1
2.861785458E0,8.348993179E1,7.671546936E0,2.224104950E1,8.674148734E1
2.871826458E0,8.914621948E1,8.913364563E0,6.779402161E0,8.984685197E1
2.881867458E0,8.768675446E1,9.189240875E0,-4.424349518E0,8.827787902E1
2.891908458E0,8.314489929E1,5.749094696E0,-1.029334488E1,8.397665936E1
2.901949458E0,7.643659927E1,-3.104993134E0,-1.096410004E1,7.728134432E1
2.911989458E0,6.849531326E1,-1.279778687E1,-6.934030609E0,7.002479609E1
2.922030458E0,6.115742249E1,-2.110985184E1,-2.379451904E0,6.474193356E1
2.932071458E0,5.548691437E1,-2.898497543E1,1.314566345E0,6.261513037E1
2.942112458E0,5.079791519E1,-3.546874237E1,4.982239380E0,6.215531017E1
2.952153458E0,4.471441589E1,-4.067252106E1,7.528594208E0,6.091233610E1
2.962193458E0,3.641148193E1,-4.394935684E1,9.278605042E0,5.782243937E1
2.972234458E0,2.213417175E1,-4.121828613E1,7.143295441E0,4.732753259E1
2.982275458E0,5.166206818E0,-3.617108185E1,3.787124634E-2,3.653817578E1
2.992316458E0,6.780749359E0,-4.032539291E1,-5.920188904E-1,4.089579883E1
3.002357458E0,2.514920197E1,-5.909800507E1,1.175041489E1,6.529263980E1
3.012398458E0,3.856370636E1,-7.570746552E1,3.366663986E1,9.139049416E1
3.022438458E0,4.145659058E1,-8.315103653E1,6.289830231E1,1.122004466E2
3.032479458E0,3.126683029E1,-8.912481400E1,9.439221039E1,1.335317810E2
3.042520458E0,1.034349060E-1,-8.893426025E1,1.186134920E2,1.482513873E2
3.052561458E0,-2.842633713E1,-8.744545624E1,1.260634996E2,1.560345167E2
3.062602458E0,-3.831312744E1,-9.009135406E1,1.106584346E2,1.477485599E2
3.072643458E0,-2.873065430E1,-9.407831314E1,7.924999878E1,1.263199976E2
3.082683458E0,-8.945397949E0,-1.001127145E2,4.956328262E1,1.120673670E2
3.092724458E0,1.174487640E1,-1.073950708E2,2.917552917E1,1.119055622E2
3.102765458E0,3.751648407E1,-1.128199397E2,1.637923920E1,1.200171023E2
3.112806458E0,6.921097504E1,-1.086020110E2,5.857319641E0,1.289141732E2
3.122847458E0,9.032726349E1,-8.834972580E1,1.776805115E-1,1.263515736E2
3.132888458E0,9.632768555E1,-6.081104279E1,-2.478396149E0,1.139436193E2
3.142928458E0,9.051617065E1,-3.927023712E1,-8.605903931E0,9.904236597E1
3.152969458E0,8.385801636E1,-2.837349701E1,-1.540656189E1,8.985869123E1
3.163010458E0,8.203181396E1,-2.142404846E1,-2.018372772E1,8.715268911E1
3.173051458E0,8.359860580E1,-1.676289139E1,-2.888423492E1,9.002233305E1
3.183092458E0,8.582223175E1,-1.116408417E1,-4.456427811E1,9.734509295E1
3.193132458E0,8.372823624E1,-4.183799744E0,-6.233607147E1,1.044686916E2
3.203173458E0,7.510407028E1,-5.149291992E-2,-7.408633667E1,1.054960156E2
3.213214458E0,6.192891815E1,2.086660767E-1,-7.894463379E1,1.003368808E2
3.223255458E0,4.842085831E1,-2.056872711E0,-7.838509735E1,9.215765693E1
3.233296458E0,3.857583115E1,-6.077661438E0,-7.525360931E1,8.478288997E1
3.243337458E0,3.412438797E1,-9.379944305E0,-6.866281494E1,7.724661394E1
3.253377458E0,3.174718140E1,-1.619108047E1,-6.260790619E1,7.204015915E1
3.263418458E0,2.502421188E1,-2.287602905E1,-5.947656784E1,6.846156592E1
3.273459458E0,2.052726334E1,-2.301808365E1,-5.201054352E1,6.046732466E1
3.283500458E0,3.108810196E1,-2.536834625E1,-5.117767548E1,6.503212700E1
3.293541458E0,4.975458481E1,-3.729210068E1,-4.531107513E1,7.693707177E1
3.303581458E0,6.361141937E1,-5.293217697E1,-3.680351669E1,9.056890678E1
3.313622458E0,7.127652969E1,-7.185971695E1,-2.426948135E1,1.040825169E2
3.323663458E0,7.176107208E1,-9.045285233E1,-9.457183685E0,1.158482123E2
3.333704458E0,6.096192902E1,-1.054952216E2,7.107819214E0,1.220496606E2
3.343745458E0,4.649361603E1,-1.179657889E2,2.938524307E1,1.301578895E2
3.353786458E0,3.732697815E1,-1.226664638E2,6.077347092E1,1.418935495E2
3.363826458E0,2.536924438E1,-1.188158711E2,9.102286697E1,1.518089988E2
3.373867458E0,8.117769012E0,-1.155168814E2,1.069853728E2,1.576575975E2
3.383908458E0,-1.555610092E1,-1.084339105E2,1.144183159E2,1.584028290E2
3.393949458E0,-2.742656616E1,-1.025471022E2,1.173061107E2,1.582050831E2
3.403990458E0,-2.001517822E1,-1.022749681E2,1.096026801E2,1.512399548E2
3.414031458E0,-2.370769958E0,-1.129890880E2,8.364725464E1,1.406023391E2
3.424072458E0,1.990934830E1,-1.298052686E2,4.850513306E1,1.399947779E2
3.434112458E0,4.762331680E1,-1.422921519E2,1.230830475E1,1.505540806E2
3.444153458E0,7.031448029E1,-1.411561642E2,-2.424598022E1,1.595526759E2
3.454194458E0,7.851083588E1,-1.295570847E2,-5.526342911E1,1.612545693E2
3.464235458E0,7.075486450E1,-1.068861292E2,-7.996610962E1,1.510810185E2
3.474276458E0,5.188540375E1,-8.192703186E1,-8.985245087E1,1.322028615E2
3.484316458E0,2.730531830E1,-7.490842712E1,-9.289801758E1,1.224209726E2
3.494357458E0,-4.373904419E-1,-7.054350403E1,-9.351353760E1,1.171382046E2
3.504398458E0,-2.002610550E1,-6.447991333E1,-9.325173203E1,1.151285788E2
3.514439458E0,-2.987277924E1,-6.124424194E1,-8.476827347E1,1.087607480E2
3.524480458E0,-4.661037323E1,-6.093333847E1,-8.091917770E1,1.115047620E2
3.534521458E0,-7.185447784E1,-5.827636368E1,-8.317887863E1,1.244103147E2
3.544561458E0,-6.941215668E1,-5.277709946E1,-7.595100906E1,1.156374745E2
3.554602458E0,-6.377263412E1,-4.599275757E1,-7.532845367E1,1.088882847E2
3.564643458E0,-4.640754501E1,-4.245516403E1,-7.551301987E1,9.827673863E1
3.574684458E0,-1.913979858E1,-4.449527161E1,-7.582422272E1,8.997485113E1
3.584725458E0,5.272186432E0,-4.857354080E1,-7.538129379E1,8.983053083E1
3.594766458E0,2.365725449E1,-6.244100327E1,-7.063870605E1,9.720273336E1
3.604806458E0,3.998051010E1,-8.739590927E1,-6.057932465E1,1.136060769E2
3.614847458E0,5.475119431E1,-1.184837119E2,-4.318310028E1,1.374804110E2
3.624888458E0,5.344695648E1,-1.456242229E2,-2.071736801E1,1.564998428E2
3.634929458E0,2.601560028E1,-1.603896680E2,3.799099731E0,1.625302747E2
3.644970458E0,-1.475870911E1,-1.539364375E2,4.375311493E1,1.607127293E2
3.655011458E0,-4.212629791E1,-1.178786700E2,9.445897156E1,1.568199705E2
3.665051458E0,-4.118295959E1,-8.487185806E1,1.070247409E2,1.426659161E2
3.675092458E0,-3.192725693E1,-8.678098801E1,8.395890656E1,1.248975084E2
3.685133458E0,-3.644216812E1,-1.047175887E2,5.652919693E1,1.244562377E2
3.695174458E0,-5.513948685E1,-1.091555598E2,4.358157166E1,1.298254699E2
3.705215458E0,-5.640256027E1,-9.634819290E1,4.469899796E1,1.202589851E2
3.715256458E0,-2.980227585E1,-8.348858459E1,4.566793304E1,9.972000558E1
3.725296458E0,2.550845490E0,-7.725180405E1,3.651985657E1,8.548712163E1
3.735337458E0,2.522659103E1,-7.614365845E1,2.124202698E1,8.297867995E1
3.745378458E0,4.343502640E1,-7.594621902E1,6.870263214E0,8.775893242E1
3.755419458E0,6.099994995E1,-7.173038589E1,-4.272415466E0,9.425760282E1
3.765460917E0,8.041218201E1,-5.882048218E1,-1.097158447E1,1.002314512E2
3.775501917E0,9.150681061E1,-3.586691437E1,-9.404942322E0,9.873390944E1
3.785541917E0,9.384015839E1,-1.403750885E1,-4.580175476E0,9.499476295E1
3.795582917E0,9.205152786E1,-1.916315002E0,-9.723629608E0,9.258350295E1
3.805623917E0,7.835875214E1,-6.801556091E0,-2.463427277E1,8.242088689E1
3.815664917E0,5.393613922E1,-2.186143890E1,-4.038901062E1,7.083997321E1
3.825705917E0,2.510384628E1,-3.294079926E1,-5.431425293E1,6.830327536E1
3.835745917E0,1.482068024E0,-3.880889648E1,-5.741011505E1,6.931268486E1
3.845786917E0,-1.579605194E1,-4.443464767E1,-5.486869995E1,7.235003390E1
3.855827917E0,-3.466147110E1,-4.393902832E1,-6.024042938E1,8.222508815E1
3.865868917E0,-4.241579590E1,-3.440924561E1,-6.422424500E1,8.430806349E1
3.875909917E0,-3.613725220E1,-3.109453857E1,-6.237499054E1,7.850739309E1
3.885950917E0,-2.659579376E1,-3.047782104E1,-5.647351273E1,6.946575747E1
3.895990917E0,-1.558813431E1,-2.954855347E1,-4.632835968E1,5.711763172E1
3.906031917E0,-6.136638794E0,-2.997965698E1,-3.767066345E1,4.853366928E1
3.916072917E0,-3.996090088E0,-3.265234909E1,-3.100053406E1,4.520152375E1
3.926113917E0,-1.071651489E1,-3.571378281E1,-2.085942261E1,4.272509199E1
3.936154917E0,-2.441917007E1,-3.869438461E1,-9.130113831E0,4.665737076E1
3.946194917E0,-3.702056534E1,-3.812751343E1,1.515747986E0,5.316509221E1
3.956235917E0,-3.983082138E1,-3.856565231E1,5.706882477E0,5.573483989E1
3.966276917E0,-2.873783936E1,-4.421086304E1,4.983137512E-1,5.273245811E1
3.976317917E0,-1.257040970E1,-5.085300064E1,-6.249803467E0,5.275512219E1
3.986358917E0,7.372618561E0,-5.733811478E1,-1.284868103E1,5.922080306E1
3.996399917E0,3.382231613E1,-6.261643845E1,-2.455688370E1,7.528484555E1
4.006439917E0,6.396228973E1,-6.882477814E1,-3.941109421E1,1.018884632E2
4.016480917E0,7.548727341E1,-7.874569748E1,-3.875366135E1,1.157629457E2
4.026521917E0,6.248082047E1,-8.809046494E1,-8.950038300E0,1.083692121E2
4.036562917E0,5.674519775E1,-9.437050552E1,5.106615738E1,1.213818858E2
4.046603917E0,4.791266510E1,-6.397366608E1,1.402108800E2,1.613918966E2
4.056644917E0,2.838681931E1,-2.997187317E1,1.756978844E2,1.804823295E2
4.066684917E0,3.166679855E1,-4.449332565E1,1.261130466E2,1.374297736E2
4.076725917E0,3.470293488E1,-6.400584915E1,6.731741272E1,9.915985312E1
4.086766917E0,2.872107422E1,-8.016399811E1,2.733705231E1,8.943422793E1
4.096807917E0,1.339070389E1,-8.301377197E1,9.477391663E0,8.461925455E1
4.106848917E0,-1.434916077E0,-6.839083054E1,5.450914764E0,6.862271604E1
4.116889917E0,-9.252858582E0,-5.478217987E1,2.715952148E0,5.562444624E1
4.126929917E0,-1.333052902E1,-4.634362793E1,-5.343887329E-1,4.822572369E1
4.136970917E0,-1.788076675E1,-3.968577301E1,-5.383854218E0,4.385964301E1
4.147011917E0,-2.246902542E1,-3.651536591E1,-1.268162842E1,4.471076772E1
4.157052917E0,-3.054443253E1,-3.421644653E1,-2.110491211E1,5.048905710E1
4.167093917E0,-4.319387787E1,-3.009132477E1,-3.130784500E1,6.124851076E1
4.177133917E0,-5.254942291E1,-2.602682693E1,-4.100243500E1,7.155443553E1
4.187174917E0,-5.413342896E1,-2.500355484E1,-4.508055450E1,7.475200519E1
4.197215917E0,-4.861665115E1,-2.776965271E1,-4.346481445E1,7.087963372E1
4.207256917E0,-4.038541809E1,-3.232243515E1,-4.249513092E1,6.694443935E1
4.217297917E0,-2.976335678E1,-4.024246536E1,-4.460439468E1,6.704375773E1
4.227338917E0,-1.303669006E1,-5.530998230E1,-4.359893555E1,7.162413427E1
4.237378917E0,6.238127747E0,-7.937064789E1,-3.730302795E1,8.792115717E1
4.247419917E0,1.854837845E1,-1.159451408E2,-2.642634613E1,1.203564281E2
4.257460917E0,1.452863754E1,-1.625589569E2,-5.058880005E0,1.632852965E2
4.267501917E0,3.376229095E0,-1.807334129E2,6.428427017E1,1.918552393E2
4.277542917E0,-1.723695557E1,-1.116564093E2,1.709058994E2,2.048733580E2
4.287583917E0,-3.074965576E1,-5.880207047E1,1.680002916E2,1.806303485E2
4.297624917E0,-3.011512527E1,-7.131275436E1,1.132793344E2,1.372029056E2
4.307664917E0,-3.517699905E1,-7.186615356E1,6.862434494E1,1.054109388E2
4.317705917E0,-3.766662186E1,-7.096397964E1,3.296385132E1,8.684052224E1
4.327746917E0,-4.997223221E1,-5.756474350E1,1.232701584E1,7.721968017E1
4.337787917E0,-5.456513123E1,-3.926529739E1,4.545896759E0,6.737790663E1
4.347828917E0,-4.601580963E1,-2.757086609E1,4.927153931E0,5.386913995E1
4.357868917E0,-2.227637604E1,-2.596979553E1,7.371121674E0,3.500000920E1
4.367909917E0,3.405119019E0,-2.634491547E1,1.090557175E1,2.871551674E1
4.377950917E0,2.400198761E1,-2.292991699E1,1.552691162E1,3.664643894E1
4.387991917E0,4.801744720E1,-1.438583450E1,1.992731094E1,5.394186864E1
4.398032917E0,8.050439026E1,1.347198486E-3,2.060061081E1,8.309838758E1
4.408073917E0,9.899184540E1,1.242102036E1,1.435874084E1,1.007960348E2
4.418113917E0,8.548782715E1,1.486843094E1,3.191662903E0,8.682986549E1
4.428154917E0,5.889981720E1,1.013138168E1,-7.321874084E0,6.021165337E1
4.438195917E0,4.120466446E1,3.975582733E0,-1.831845657E1,4.526804041E1
4.448236917E0,3.017185730E1,-9.613009644E-1,-3.292627945E1,4.466995580E1
4.458277917E0,2.487152939E1,-2.574496307E0,-5.245017929E1,5.810544134E1
4.468317917E0,2.400692734E1,-9.198371887E-1,-6.807124512E1,7.218637733E1
4.478358917E0,2.080583405E1,-6.771917725E-1,-7.795040131E1,8.068213174E1
4.488399917E0,1.524100616E1,-2.997516632E0,-8.412595917E1,8.554794200E1
4.498440917E0,1.194291458E1,-6.086792450E0,-8.037386169E1,8.148398551E1
4.508481917E0,1.192345505E1,-1.090153015E1,-7.173682251E1,7.353355590E1
4.518522917E0,1.441277847E1,-1.757959305E1,-6.263155701E1,6.662943950E1
4.528562917E0,1.974588821E1,-2.186518112E1,-5.224869827E1,5.998260346E1
4.538603917E0,2.683484665E1,-2.484713013E1,-4.312891296E1,5.654725461E1
4.548644917E0,3.440280899E1,-2.827395401E1,-3.695380417E1,5.786668631E1
4.558685917E0,4.075844238E1,-3.345123779E1,-3.267510178E1,6.203142922E1
4.568726917E0,4.430232285E1,-4.252417053E1,-2.858530655E1,6.773566741E1
4.578767917E0,4.620681244E1,-5.639537521E1,-2.383747971E1,7.670549720E1
4.588807917E0,4.764487198E1,-7.626804977E1,-1.526450729E1,9.121323602E1
4.598848917E0,4.811699020E1,-9.540889618E1,3.641327820E0,1.069175453E2
4.608889917E0,3.851116562E1,-1.025824287E2,3.657928299E1,1.155175680E2
4.618930917E0,1.839180405E1,-9.410660431E1,7.045922928E1,1.189908165E2
4.628971917E0,3.779640198E-1,-9.029852325E1,8.473878479E1,1.238330643E2
4.639012917E0,-2.055750046E1,-9.024104279E1,8.075107727E1,1.228283074E2
4.649052917E0,-4.275334396E1,-8.714323471E1,6.700112045E1,1.179446562E2
4.659093917E0,-5.199677216E1,-8.156718018E1,5.274177292E1,1.101751506E2
4.669134917E0,-4.977239777E1,-7.630232849E1,3.788980774E1,9.866597409E1
4.679175917E0,-3.605537247E1,-7.175119263E1,2.086645798E1,8.296765994E1
4.689216917E0,-1.850197495E1,-6.914735733E1,7.501350861E0,7.197187206E1
4.699257917E0,-2.095642090E-1,-6.548207932E1,1.476828918E0,6.549906604E1
4.709297917E0,2.139291321E1,-6.044041351E1,-7.351213074E-1,6.411895761E1
4.719338917E0,5.155474136E1,-5.249643311E1,-6.403833160E0,7.385645486E1
4.729379917E0,8.203346054E1,-3.707969238E1,-1.123039627E1,9.072218051E1
4.739420917E0,9.289966415E1,-1.373648483E1,-3.712280273E-2,9.390974387E1
4.749461917E0,8.176806244E1,3.635939026E-1,2.908242279E1,8.678672451E1
4.759502917E0,6.402785339E1,3.526366882E0,7.298522644E1,9.715371610E1
4.769542417E0,5.684578857E1,1.338711136E1,1.140276283E2,1.281130690E2
4.779583417E0,5.152555206E1,1.439586365E1,1.137695650E2,1.257204730E2
4.789624417E0,4.507112411E1,4.755610657E0,7.368966156E1,8.651120322E1
4.799665417E0,3.380555099E1,-1.444196777E0,3.868645111E1,5.139593838E1
4.809706417E0,2.133872589E1,-3.912563782E0,1.763243317E1,2.795625292E1
4.819747417E0,9.278006287E0,-5.953719177E0,5.609135742E0,1.236893595E1
4.829787417E0,-1.221160583E0,-5.673801270E0,1.354682922E-1,5.805308405E0
4.839828417E0,-8.424780579E0,-4.182602234E0,-1.976040802E0,9.611234390E0
4.849869417E0,-1.190459427E1,-3.708238678E0,-3.795207825E0,1.303357208E1
4.859910417E0,-1.163141235E1,-3.635040894E0,-5.429359589E0,1.334096028E1
4.869951417E0,-9.346563721E0,-3.252436523E0,-5.543272705E0,1.134303615E1
4.879991417E0,-6.444099426E0,-2.630030823E0,-4.013004913E0,8.034157577E0
4.890032417E0,-3.588487701E0,-1.604812775E0,-1.351988525E0,4.156987010E0
4.900073417E0,-6.806346130E-1,-2.056723022E-1,1.592238922E0,1.743785927E0
4.910114417E0,3.377276917E0,1.739382935E0,4.267176361E0,5.713164312E0
4.920155417E0,8.870403900E0,4.626429291E0,7.752229156E0,1.265642012E1
4.930196417E0,1.612626526E1,8.510252838E0,1.055769516E1,2.107002045E1
4.940236417E0,2.265763321E1,1.024574387E1,1.397299301E1,2.852346654E1
4.950277417E0,2.651196808E1,9.521699524E0,1.707229797E1,3.293949865E1
4.960318417E0,2.549139038E1,8.092471619E0,1.839464813E1,3.246016267E1
4.970359417E0,2.129920807E1,6.866820374E0,1.664688263E1,2.789136403E1
4.980400417E0,1.961940125E1,5.865103455E0,1.158665543E1,2.352808806E1
4.990440417E0,2.020139099E1,4.470004578E0,6.380631409E0,2.165154951E1
5.000481417E0,1.970397537E1,2.142943726E0,3.398832092E0,2.010947321E1
5.010522417E0,1.728216156E1,-1.652563477E-1,1.429826660E0,1.734199591E1
5.020563417E0,1.410741348E1,-3.858077087E0,-1.043330383E-1,1.462582508E1
5.030604417E0,1.031145721E1,-1.087099365E1,-1.264270935E0,1.503672284E1
5.040645417E0,3.983216858E0,-2.018013519E1,-3.702400818E0,2.090003935E1
5.050685417E0,-7.301666107E0,-2.885369843E1,-7.672594757E0,3.073628070E1
5.060726417E0,-2.113829269E1,-3.327640137E1,-7.259902954E0,4.008556469E1
5.070767417E0,-3.362397858E1,-3.736499908E1,2.365830231E0,5.032208506E1
5.080808417E0,-4.308475479E1,-4.557228195E1,1.830648148E1,6.533189299E1
5.090849417E0,-4.750940369E1,-5.042773499E1,3.747232590E1,7.876722099E1
5.100890417E0,-4.810381760E1,-5.068040955E1,4.966462189E1,8.572663440E1
5.110930417E0,-3.992228119E1,-5.023837875E1,4.620681244E1,7.907434951E1
5.120971417E0,-2.283516403E1,-4.996624466E1,3.445310440E1,6.484664004E1
5.131012417E0,-5.713468781E0,-4.788542175E1,2.524649963E1,5.443384136E1
5.141053417E0,6.793023834E0,-4.477848267E1,1.926808182E1,4.921906805E1
5.151094417E0,1.588616455E1,-4.193095413E1,1.562091614E1,4.748250372E1
5.161135417E0,2.642305298E1,-3.801045685E1,1.401026550E1,4.836589809E1
5.171175417E0,4.206672180E1,-2.663740723E1,1.263702118E1,5.136978539E1
5.181216417E0,5.379348587E1,-5.417983246E0,1.158755356E1,5.529344502E1
5.191257417E0,5.481496170E1,1.212254105E1,1.496004044E1,5.809852698E1
5.201298417E0,5.109235291E1,2.204196350E1,1.820110062E1,5.854533922E1
5.211339417E0,4.343487671E1,2.435510330E1,2.127615601E1,5.415195644E1
5.221379417E0,3.326248032E1,2.088741440E1,2.171249863E1,4.487882879E1
5.231420417E0,2.652753571E1,1.703562424E1,1.858879440E1,3.659871475E1
5.241461417E0,2.355277176E1,1.437236252E1,1.446666641E1,3.115416985E1
5.251502417E0,2.322345657E1,1.242865448E1,9.668095093E0,2.805837576E1
5.261543417E0,2.191637466E1,1.017015106E1,5.108127594E0,2.469519019E1
5.271584417E0,1.798420166E1,7.067403259E0,2.171234894E0,1.944463831E1
5.281624417E0,1.166973267E1,2.684068451E0,5.731581116E-1,1.198813556E1
5.291665417E0,4.236340485E0,-1.821262665E0,-1.335223389E-1,4.613177496E0
5.301706417E0,-3.376977539E0,-5.547463989E0,-6.026467896E-1,6.522385849E0
5.311747417E0,-1.017284546E1,-7.631130981E0,-1.400337982E0,1.279382239E1
5.321788417E0,-1.402822815E1,-7.626191254E0,-1.560654602E0,1.604324222E1
5.331829417E0,-1.446292419E1,-6.439908142E0,-2.644999695E-1,1.583409465E1
5.341869417E0,-1.271635620E1,-5.563181305E0,2.387086029E0,1.408378078E1
5.351910417E0,-1.019035904E1,-5.471721497E0,4.931943970E0,1.257406954E1
5.361951417E0,-7.573949890E0,-4.566853180E0,6.439908142E0,1.094044249E1
5.371992417E0,-5.293442230E0,-2.337838440E0,7.504943390E0,9.476824073E0
5.382033417E0,-4.000580750E0,-4.065545654E-1,8.532855835E0,9.432897839E0
5.392073417E0,-2.912942505E0,1.350341949E0,9.215137024E0,9.758453145E0
5.402114417E0,-1.866318970E0,2.990331573E0,9.530231781E0,1.016122764E1
5.412155417E0,-1.162482605E0,4.111200714E0,9.477241974E0,1.039574204E1
5.422196417E0,-7.521858215E-1,4.731361084E0,8.718769226E0,9.948291212E0
5.432237417E0,-6.080355835E-1,5.157973938E0,7.509733429E0,9.130744690E0
5.442278417E0,-4.602928162E-1,5.630541229E0,6.381379852E0,8.522726842E0
5.452318417E0,-9.999206543E-2,6.046077118E0,5.639522552E0,8.268570708E0
5.462359417E0,2.339634705E-1,6.311175842E0,5.280569000E0,8.232259009E0
5.472400417E0,8.991801453E-1,6.653364258E0,5.170098724E0,8.473824503E0
5.482441417E0,1.187031555E0,6.727759552E0,5.683231659E0,8.886558085E0
5.492482417E0,1.287622375E0,6.894213409E0,6.646478577E0,9.662495919E0
5.502523417E0,1.641636200E0,7.046147461E0,7.585026855E0,1.048216561E1
5.512563417E0,2.107766876E0,6.927593994E0,8.624315643E0,1.126113050E1
5.522604417E0,2.542013855E0,6.636449432E0,9.691147156E0,1.201759663E1
5.532645417E0,2.866239624E0,6.300398254E0,1.053943314E1,1.260912362E1
5.542686417E0,2.904559937E0,6.133794708E0,1.094703552E1,1.288012006E1
5.552727417E0,2.648592224E0,6.011349335E0,1.075752960E1,1.260459459E1
5.562767417E0,2.116299133E0,5.745352478E0,9.900411987E0,1.164070250E1
5.572808417E0,1.694027252E0,5.543721771E0,8.724756775E0,1.047492053E1
5.582849417E0,1.556163940E0,5.374124451E0,7.539820862E0,9.388916788E0
5.592890417E0,1.356329498E0,5.207071838E0,6.683002625E0,8.579962175E0
5.602931417E0,1.120120697E0,5.047503662E0,6.105952606E0,8.000913749E0
5.612972417E0,5.905220032E-1,4.938979340E0,5.999823303E0,7.793594346E0
5.623012417E0,-4.733157349E-1,4.787793732E0,7.856262817E0,9.212375484E0
5.633053417E0,-2.218386841E-1,5.125790863E0,1.212568451E1,1.316644102E1
5.643094417E0,1.270258484E0,4.678670654E0,1.490091339E1,1.566973949E1
5.653135417E0,3.611988831E-1,5.269192657E0,1.187031555E1,1.299227644E1
5.663176417E0,-5.980064392E-1,5.936205597E0,9.163943481E0,1.093499011E1
5.673217417E0,4.489164734E-1,5.919590149E0,1.054661819E1,1.210265379E1
5.683257417E0,2.604583740E-1,4.713847504E0,1.047551605E1,1.149019727E1
5.693298417E0,1.616638184E-1,4.018842773E0,9.632768555E0,1.043874813E1
5.703339417E0,1.335223389E-1,4.024231567E0,9.366023254E0,1.019483494E1
5.713380417E0,6.753955078E-1,3.961511993E0,9.435478821E0,1.025563245E1
5.723421417E0,1.269959106E0,4.100572815E0,9.364226990E0,1.030127374E1
5.733461417E0,1.307381287E0,4.407734070E0,9.126521301E0,1.021913678E1
5.743502417E0,1.313069458E0,4.716841278E0,9.023535461E0,1.026630095E1
5.753543417E0,1.758692780E0,4.962480469E0,9.050479431E0,1.047045322E1
5.763585333E0,2.134112091E0,4.809348907E0,8.768765259E0,1.022621707E1
5.773626333E0,2.138752441E0,4.509223022E0,8.394543457E0,9.766049054E0
5.783667333E0,2.011367340E0,4.294868774E0,8.209378510E0,9.480790678E0
5.793707333E0,1.885329437E0,4.189637604E0,8.228688354E0,9.424374906E0
5.803748333E0,1.765578461E0,4.031566315E0,8.157885590E0,9.269406213E0
5.813789333E0,1.570983124E0,3.452121277E0,7.918533325E0,8.779994266E0
5.823830333E0,1.685345306E0,3.610641632E0,8.027057648E0,8.961627993E0
5.833871333E0,1.847757568E0,4.098776550E0,8.836574249E0,9.914596396E0
5.843911333E0,1.717977448E0,3.978726196E0,8.945847015E0,9.940316266E0
5.853952333E0,1.577719116E0,3.738026733E0,8.888067169E0,9.770352065E0
5.863993333E0,1.420995026E0,3.729045410E0,8.513845367E0,9.402689481E0
5.874034333E0,1.280437317E0,3.896696777E0,8.275540924E0,9.236251571E0
5.884075333E0,1.424437866E0,4.018992462E0,8.574768677E0,9.576428432E0
5.894116333E0,1.658251648E0,4.048331451E0,9.062903595E0,1.006354846E1
5.904156333E0,1.710642700E0,3.964655457E0,9.416468353E0,1.035927930E1
5.914197333E0,1.859433289E0,3.963757324E0,9.395062866E0,1.036513727E1
5.924238333E0,1.940414886E0,4.144431610E0,9.053772583E0,1.014457103E1
5.934279333E0,1.857786713E0,4.379742279E0,8.716224518E0,9.930059604E0
5.944320333E0,1.648970947E0,4.596341858E0,8.760682068E0,1.002970657E1
5.954361333E0,1.457818451E0,4.576433258E0,8.943002930E0,1.015117123E1
5.964401333E0,1.516496429E0,4.263284454E0,8.520132294E0,9.647176274E0
5.974442333E0,1.273701324E0,4.150868225E0,8.350385284E0,9.411745666E0
5.984483333E0,5.565426636E-1,4.429888000E0,8.961115265E0,1.001175480E1
5.994524333E0,3.073109436E-1,4.632267151E0,9.641001434E0,1.070052558E1
6.004565333E0,6.382727051E-1,4.465813293E0,9.756710815E0,1.074915282E1
6.014606333E0,1.031205597E0,4.088897095E0,9.501192169E0,1.039495633E1
6.024646333E0,9.857002258E-1,3.791764984E0,9.244176636E0,1.004011396E1
6.034687333E0,9.162446594E-1,3.814068604E0,8.948541412E0,9.770517745E0
6.044728333E0,1.072669373E0,3.960015106E0,8.593330078E0,9.522481875E0
6.054769333E0,1.221010895E0,4.096830597E0,8.227490845E0,9.271811805E0
6.064810333E0,1.276096344E0,4.209396515E0,7.957901459E0,9.092614394E0
6.074850333E0,1.310674438E0,4.159250793E0,7.899073792E0,9.022893184E0
6.084891333E0,1.422192535E0,4.263284454E0,7.909552002E0,9.097210497E0
6.094932333E0,1.274749146E0,4.186643829E0,8.009993134E0,9.127593436E0
6.104973333E0,1.018032990E0,3.994144135E0,8.188571777E0,9.167458006E0
6.115014333E0,8.512797546E-1,4.086202698E0,8.474776611E0,9.446881407E0
6.125055333E0,6.824308777E-1,4.223766632E0,8.784781952E0,9.771300344E0
6.135095333E0,6.503974915E-1,4.407434692E0,8.846902771E0,9.905361483E0
6.145136333E0,7.572752380E-1,4.505780182E0,8.915011139E0,1.001763168E1
6.155177333E0,9.187893677E-1,4.495601349E0,8.893156586E0,1.000713942E1
6.165218333E0,1.211879883E0,4.488865356E0,8.859027557E0,1.000504544E1
6.175259333E0,1.424737244E0,4.466711426E0,8.760682068E0,9.936344271E0
6.185300333E0,1.637145538E0,4.436174927E0,8.783734131E0,9.975664328E0
6.195340333E0,1.789079590E0,4.395160217E0,8.876840515E0,1.006561159E1
6.205381333E0,1.815424805E0,4.357288971E0,8.976383514E0,1.014185365E1
6.215422333E0,1.807491302E0,4.271217957E0,9.069489899E0,1.018655853E1
6.225463333E0,1.711989899E0,4.212989044E0,8.910819855E0,1.000414397E1
6.235504333E0,1.688189392E0,4.263284454E0,8.740025024E0,9.869833595E0
6.245544333E0,1.746867371E0,4.354295197E0,8.612639923E0,9.807599029E0
6.255585333E0,1.906285858E0,4.380790100E0,8.650810547E0,9.882397017E0
6.265626333E0,2.068099365E0,4.323159943E0,8.856782227E0,1.007022037E1
6.275667333E0,2.031725006E0,4.248315582E0,8.892258453E0,1.006222402E1
6.285708333E0,1.845212860E0,4.169878693E0,8.795709229E0,9.907431536E0
6.295749333E0,1.710043945E0,4.225263519E0,8.650211792E0,9.777692271E0
6.305789333E0,1.757046204E0,4.339026947E0,8.600066071E0,9.791603680E0
6.315830333E0,1.843266907E0,4.427343292E0,8.486602020E0,9.747892868E0
6.325871333E0,2.013163605E0,4.507576447E0,8.317154388E0,9.671924847E0
6.335912333E0,2.099533997E0,4.595443726E0,8.366551666E0,9.773706197E0
6.345953333E0,2.037562866E0,4.586761780E0,8.254584503E0,9.660652741E0
6.355994333E0,1.935924225E0,4.511168976E0,8.142916718E0,9.508182834E0
6.366034333E0,1.804796906E0,4.486021271E0,8.106542358E0,9.439158210E0
6.376075333E0,1.807790680E0,4.480482788E0,8.169860687E0,9.491546597E0
6.386116333E0,1.949845276E0,4.427343292E0,8.298293610E0,9.605464177E0
6.396157333E0,2.082170105E0,4.414619751E0,8.272547150E0,9.605172369E0
6.406198333E0,2.083517303E0,4.338128815E0,8.129744110E0,9.447388277E0
6.416238333E0,2.185006256E0,4.367767181E0,7.903414764E0,9.290619324E0
6.426279333E0,2.310595093E0,4.530927887E0,7.961493988E0,9.447409366E0
6.436320333E0,2.289339294E0,4.585115204E0,8.720415802E0,1.011484096E1
6.446361333E0,2.168690186E0,4.441264343E0,9.095984802E0,1.035205224E1
6.456402333E0,2.158960419E0,4.310137024E0,8.689879303E0,9.937423889E0