"Time (s)","Acceleration x (m/s^2)","Acceleration y (m/s^2)","Acceleration z (m/s^2)","Absolute acceleration (m/s^2)"
-1.168541668E-3,3.529809723E0,8.544980621E0,5.664520569E0,1.084264930E1
8.872458362E-3,2.213896179E0,6.840325470E0,5.249733124E0,8.902307942E0
1.891345833E-2,-1.190624084E0,1.151405640E0,4.616699524E0,4.904817545E0
2.895445836E-2,4.849914551E-2,2.921175385E0,6.688241730E0,7.298506370E0
3.899545834E-2,4.867727509E0,8.244854736E0,8.150101776E0,1.257364544E1
4.903545836E-2,4.982389069E0,8.615783386E0,7.557783508E0,1.249704028E1
5.907645833E-2,2.299967194E0,8.696166229E0,8.650810547E0,1.247997113E1
6.911745836E-2,3.405119019E0,8.834777985E0,8.866362305E0,1.297152721E1
7.915845833E-2,4.892875214E0,6.851103058E0,7.664511566E0,1.138519119E1
8.919945837E-2,5.670208740E0,5.415887604E0,5.749244385E0,9.723009652E0
9.924045834E-2,2.812800751E0,7.330406342E0,5.827381897E0,9.777785279E0
1.092814584E-1,1.549577637E0,8.812773743E0,6.422693939E0,1.101440735E1
1.193214583E-1,1.533710632E0,8.915310516E0,6.777306519E0,1.130340274E1
1.293624584E-1,1.690883789E0,8.417146454E0,7.001240845E0,1.107812330E1
1.394034583E-1,2.373763733E0,7.845784607E0,6.855593719E0,1.068598407E1
1.494444584E-1,3.031795349E0,7.163802795E0,6.044131165E0,9.851059591E0
1.594854583E-1,3.125201111E0,6.315965881E0,4.134552155E0,8.170240420E0
1.695264584E-1,3.131937103E0,6.222560120E0,8.327183533E-1,7.015889417E0
1.795664583E-1,3.424279175E0,7.161108398E0,1.300196228E0,8.043486283E0
1.896074584E-1,3.610192566E0,9.914183350E0,2.579136658E-1,1.055419544E1
1.996484583E-1,1.662293243E0,1.082144669E1,1.313967590E0,1.102694146E1
2.096894584E-1,-2.557282104E0,7.868686981E0,2.652035065E0,8.688453059E0
2.197304583E-1,-6.585106201E0,4.831802216E0,5.032534790E0,9.593557356E0
2.297714584E-1,-7.337441711E0,3.170556793E0,8.456364899E0,1.163617586E1
2.398114583E-1,-5.551804962E0,-2.622546387E-1,1.203332657E1,1.325489586E1
2.498524584E-1,-1.226250000E0,1.929337921E0,1.496318390E1,1.513680634E1
2.598934583E-1,2.612367554E0,5.632936249E0,1.637849075E1,1.751597540E1
2.699344584E-1,4.454436951E0,4.958738251E0,1.596026047E1,1.729627150E1
2.799754583E-1,5.473517761E0,3.728446655E0,1.524310181E1,1.661965294E1
2.900164584E-1,5.912854156E0,4.088148651E0,1.461635513E1,1.628842046E1
3.000574583E-1,5.353168030E0,4.864733734E0,1.326421692E1,1.510832528E1
3.100974584E-1,4.619543610E0,5.115312653E0,1.197090637E1,1.381337055E1
3.201384583E-1,4.921016693E0,5.574707336E0,1.079120956E1,1.310511240E1
3.301794584E-1,4.724774780E0,6.272855530E0,6.907835083E0,1.045898651E1
3.402204583E-1,5.006938019E0,6.316414948E0,8.303233337E-1,8.102836723E0
3.502614584E-1,4.252656555E0,5.961502991E0,-7.551346893E0,1.051890895E1
3.603024583E-1,3.871848450E0,6.847510529E0,-1.230082031E1,1.460102021E1
3.703424584E-1,2.251468048E0,6.033503265E0,-1.219064941E1,1.378710278E1
3.803834583E-1,9.686357117E-1,5.176235962E0,-8.326884155E0,9.852343559E0
3.904244584E-1,1.999392242E0,5.508095856E0,-4.099225616E0,7.151247440E0
4.004654583E-1,4.300856323E0,5.635031891E0,-1.131347351E0,7.178502375E0
4.105064584E-1,5.346731415E0,4.416266327E0,5.348976746E0,8.757996193E0
4.205474583E-1,3.325933685E0,3.293451233E0,1.778062500E1,1.838638848E1
4.305874584E-1,4.433480530E0,3.368295593E0,2.376772476E1,2.441118402E1
4.406284583E-1,4.846172333E0,3.969445496E0,2.944571732E1,3.010468655E1
4.506694584E-1,5.352569275E0,4.086502075E0,2.773073364E1,2.853669717E1
4.607104583E-1,4.790787506E0,4.488116913E0,2.131342850E1,2.230150382E1
4.707514584E-1,1.609602814E0,3.872746582E0,1.102801712E1,1.179856554E1
4.807924583E-1,-5.136119385E0,2.171085205E0,-5.611081696E0,7.910598656E0
4.908324584E-1,-8.806636505E0,2.930905151E0,-2.044897614E1,2.245679578E1
5.008734583E-1,-7.777975616E0,3.369942169E0,-2.477737518E1,2.618724376E1
5.109144584E-1,-4.806055756E0,3.008593597E0,-1.891017609E1,1.974194942E1
5.209554583E-1,-1.610650635E-1,3.761827240E0,-9.580676880E0,1.029401067E1
5.309964584E-1,3.593577118E0,3.768114166E0,-1.886976013E0,5.538335431E0
5.410374583E-1,5.298681335E0,3.121608582E0,6.300997009E0,8.804716199E0
5.510784584E-1,6.334976349E0,2.586321716E0,1.599573669E1,1.739783256E1
5.611184583E-1,5.279371490E0,8.349636841E-1,2.505025772E1,2.561414335E1
5.711594584E-1,2.596500549E0,8.837622070E-1,3.044069824E1,3.056401414E1
5.812007083E-1,1.636546783E0,2.382146301E0,3.189642105E1,3.202709138E1
5.912417084E-1,2.010918274E0,2.668201447E0,2.896761154E1,2.915965723E1
6.012827083E-1,1.683249664E0,2.725981293E0,2.257216095E1,2.279839366E1
6.113237084E-1,-1.558558960E0,2.232008514E0,1.185085602E1,1.215951300E1
6.213637083E-1,-7.693551178E0,2.644700317E0,-3.924688568E0,9.032626963E0
6.314047084E-1,-1.084824097E1,4.711302795E0,-1.626293106E1,2.010879491E1
6.414457083E-1,-1.051174072E1,3.944148102E0,-1.854972565E1,2.168283466E1
6.514867084E-1,-9.222621460E0,1.488654327E0,-1.233060837E1,1.546986558E1
6.615277083E-1,-7.690707092E0,1.121168518E-1,-3.365601196E0,8.395642750E0
6.715687084E-1,-4.202660522E0,5.282514954E-1,5.059927826E0,6.598808583E0
6.816087083E-1,4.432283020E-1,1.700014801E0,1.450827988E1,1.461426312E1
6.916497084E-1,4.890779572E0,1.952090607E0,2.702375381E1,2.753204774E1
7.016907083E-1,4.996908875E0,-2.622546387E-1,3.665307953E1,3.699305495E1
7.117317084E-1,-1.941612396E0,-1.607507172E0,3.961392242E1,3.969403970E1
7.217727083E-1,-7.943082275E0,-1.685794373E0,3.795806580E1,3.881686770E1
7.318137084E-1,-9.171876984E0,-2.291584625E0,3.325095428E1,3.456878141E1
7.418547084E-1,-9.087452545E0,-1.266965332E0,2.680505859E1,2.833192830E1
7.518947084E-1,-1.044333298E1,-2.213896179E-1,1.775787231E1,2.060228740E1
7.619357083E-1,-1.150477570E1,4.478686523E-1,1.854044495E0,1.166181509E1
7.719767084E-1,-1.059601547E1,2.892734528E0,-1.099284027E1,1.553981963E1
7.820177083E-1,-1.307815384E1,3.308420105E0,-1.231354385E1,1.826491483E1
7.920587084E-1,-1.389216110E1,1.748513947E0,-6.603368225E0,1.548075945E1
8.020997084E-1,-1.062789917E1,1.997296600E0,7.611671448E-1,1.084070154E1
8.121397084E-1,-5.944588165E0,3.760180664E0,8.592731323E0,1.110459899E1
8.221807083E-1,2.260299683E-1,6.131549377E0,1.677800995E1,1.786473076E1
8.322217084E-1,7.299271088E0,7.905360718E0,2.564197723E1,2.780800394E1
8.422627083E-1,7.836952972E0,6.063291321E0,2.908841034E1,3.072974047E1
8.523037084E-1,-8.273295593E-1,3.649411011E0,2.806738358E1,2.831573230E1
8.623447084E-1,-8.481063538E0,2.142494659E0,2.778132843E1,2.912594945E1
8.723847084E-1,-8.340505829E0,7.590715027E-1,2.678784439E1,2.806650734E1
8.824257083E-1,-3.678899689E0,6.680607605E-1,2.409404617E1,2.438244592E1
8.924667084E-1,-7.782316589E-1,-7.458988953E-1,1.808733719E1,1.811943090E1
9.025077083E-1,-1.902094574E0,-3.865112457E0,3.718716888E0,5.690862270E0
9.125487084E-1,-2.243085480E0,-1.484912109E0,-1.438927734E1,1.463856888E1
9.225897084E-1,-1.433269501E0,4.142186279E0,-2.260479309E1,2.302582549E1
9.326307084E-1,-1.916913757E0,4.788093109E0,-1.888398056E1,1.957562555E1
9.426707083E-1,3.115022278E-1,6.314019928E0,-1.006656647E1,1.188695258E1
9.527117084E-1,2.749183044E0,8.896449738E0,-3.594924316E0,9.981398008E0
9.627527084E-1,5.520220642E0,1.013721954E1,1.599873047E0,1.165313905E1
9.727937084E-1,7.402556305E0,9.565258942E0,7.332501984E0,1.414417208E1
9.828347084E-1,3.129991150E0,6.162085876E0,1.819167023E1,1.946034462E1
9.928757084E-1,-3.791764984E0,3.285817108E0,2.155397827E1,2.213025203E1
1.002915708E0,-7.514523468E0,1.964814148E0,2.235616013E1,2.366699079E1
1.012956708E0,-7.896978149E0,2.019749908E0,2.479384094E1,2.609935253E1
1.022997708E0,-2.436034241E0,1.116977234E0,2.250764511E1,2.266662722E1
1.033038708E0,2.935844879E0,1.375040588E0,1.777089523E1,1.806418111E1
1.043079708E0,3.864064636E0,1.241368561E0,7.775281219E0,8.770803239E0
1.053120708E0,2.777623901E0,4.640350342E-1,-1.014664993E1,1.053019601E1
1.063160708E0,5.514083405E0,2.702330475E0,-2.324635895E1,2.404372912E1
1.073201708E0,4.719236298E0,5.028493195E0,-2.377056885E1,2.475069450E1
1.083242708E0,1.037043457E0,6.099665680E0,-1.688099579E1,1.797913789E1
1.093283708E0,7.370672607E-1,8.319848785E0,-1.066322571E1,1.354501881E1
1.103324708E0,2.333647156E0,9.889335022E0,-6.867718506E0,1.226419234E1
1.113365708E0,4.164639587E0,8.965306549E0,-2.857258301E0,1.029003739E1
1.123405708E0,3.331172791E0,5.746549988E0,3.974834290E0,7.740727133E0
1.133446708E0,-3.341351624E0,2.500999146E0,1.653581360E1,1.705440585E1
1.143487708E0,-6.796316986E0,1.730551300E0,2.142644348E1,2.254500416E1
1.153528708E0,-5.870641937E0,2.042652283E0,2.654250458E1,2.726062021E1
1.163569708E0,-5.535488892E-1,3.220403137E0,2.721984604E1,2.741527733E1
1.173610708E0,6.480024719E0,5.848937073E0,2.440285400E1,2.591717710E1
1.183650708E0,1.003692810E1,6.511758728E0,1.799617676E1,2.161030554E1
1.193691708E0,6.585106201E0,2.233954468E0,4.018992462E0,8.031592411E0
1.203732708E0,6.655160522E-1,6.885681152E-3,-1.206086929E1,1.207921881E1
1.213773708E0,-7.590715027E-1,2.919379120E0,-1.972029144E1,1.994965811E1
1.223814708E0,-3.196602631E0,4.153562622E0,-1.952404953E1,2.021531253E1
1.233855708E0,-5.830375671E-1,6.610104218E0,-1.688533676E1,1.814243666E1
1.243896708E0,5.493126984E0,1.057700500E1,-1.421009995E1,1.854654737E1
1.253936708E0,1.018721558E1,1.119162689E1,-1.126617188E1,1.886686255E1
1.263977708E0,1.182930084E1,9.102720795E0,-5.522615662E0,1.591512388E1
1.274018708E0,7.546107788E0,7.257058868E0,9.928852844E0,1.442881717E1
1.284059708E0,4.318519592E0,8.230933685E0,2.071257797E1,2.270261586E1
1.294100708E0,6.527476044E0,8.479866028E0,2.453637634E1,2.676844851E1
1.304141708E0,9.897418213E0,1.002570145E1,2.251932083E1,2.656300788E1
1.314181708E0,1.303414536E1,1.320613770E1,1.646935181E1,2.480988849E1
1.324222708E0,1.249092499E1,1.204829544E1,6.943161621E0,1.869203369E1
1.334263708E0,8.514294434E-1,3.607049103E0,-7.867339783E0,8.696595344E0
1.344304708E0,-9.069040833E0,-1.960024109E0,-2.123663818E1,2.317507276E1
1.354345708E0,-1.069900131E1,2.332000580E0,-2.631482803E1,2.850222851E1
1.364386708E0,-1.279569122E1,3.345243530E0,-2.555261307E1,2.877249386E1
1.374426708E0,-8.105195160E0,2.444566498E0,-2.073592941E1,2.239751912E1
1.384467708E0,-4.355941772E-2,4.287534027E0,-1.320104828E1,1.387993232E1
1.394508708E0,9.365274811E0,6.580016785E0,-7.414980469E0,1.363770246E1
1.404549708E0,1.716031494E1,5.285957794E0,-1.329385529E0,1.800513884E1
1.414590708E0,1.806084229E1,2.382146301E0,1.192285629E1,2.177207264E1
1.424631708E0,1.503039413E1,2.553090820E0,2.842049927E1,3.225144647E1
1.434672708E0,1.265857635E1,3.607049103E0,3.785388245E1,4.007701055E1
1.444712708E0,1.295885193E1,4.310885468E0,3.891742081E1,4.124416588E1
1.454753708E0,1.550700302E1,5.039570160E0,3.301309891E1,3.682022691E1
1.464794708E0,1.484492981E1,3.252286835E0,2.354289230E1,2.802172530E1
1.474835708E0,1.648821259E0,-6.945856018E0,6.067482605E0,9.368984605E0
1.484876708E0,-1.184067719E1,-1.148037643E1,-1.442565170E1,2.191118679E1
1.494917708E0,-1.310180466E1,-4.687951355E0,-2.346595230E1,2.728158886E1
1.504957708E0,-1.675016785E1,-8.046816559E0,-2.422427536E1,3.053088430E1
1.514998708E0,-1.088416626E1,-1.063732956E1,-1.891810959E1,2.427988315E1
1.525039708E0,-4.798271942E0,-1.183618652E1,-7.877668304E0,1.500587828E1
1.535080708E0,5.932164001E-1,-1.272548721E1,6.069578247E0,1.411133270E1
1.545121708E0,8.555009766E0,-1.051787796E1,2.152553741E1,2.543939288E1
1.555162708E0,1.672741516E1,-7.136260071E0,3.821687759E1,4.232330751E1
1.565202708E0,2.032877609E1,-4.206702118E0,5.100882660E1,5.507137070E1
1.575243708E0,1.223974731E1,-5.530249786E0,5.240392548E1,5.409774933E1
1.585284042E0,2.248773651E0,-7.888894958E0,4.531990677E1,4.605633068E1
1.595325042E0,1.624122620E0,-8.617429962E0,3.754776901E1,3.855817464E1
1.605366042E0,7.036567383E0,-8.702004089E0,2.914065170E1,3.121563290E1
1.615407042E0,8.815168762E0,-7.692653046E0,2.087005051E1,2.392578357E1
1.625447042E0,5.251529388E0,-8.466543732E0,9.673483887E0,1.388658396E1
1.635488042E0,-2.922821960E0,-9.323361969E0,-5.172643433E0,1.105550572E1
1.645529042E0,-1.225291992E1,-8.685688019E0,-1.841320953E1,2.376176568E1
1.655570042E0,-2.308170135E1,-6.412964172E0,-2.473471390E1,3.443395299E1
1.665611042E0,-2.403192535E1,-4.797673187E0,-2.237187744E1,3.318210368E1
1.675652042E0,-1.238090378E1,-8.735833740E-1,-1.485870117E1,1.936055079E1
1.685693042E0,2.135010223E0,6.092330933E0,-7.690856781E0,1.004111761E1
1.695733042E0,1.305644897E1,9.670490112E0,-1.134490814E0,1.628730513E1
1.705774042E0,1.814092575E1,8.105195160E0,8.575068054E0,2.164068316E1
1.715815042E0,1.500614456E1,8.675209808E0,2.746294052E1,3.247547909E1
1.725856042E0,7.522456970E0,9.985435181E0,3.829606293E1,4.028504326E1
1.735897042E0,1.474134521E0,6.801107025E0,3.878434753E1,3.940372753E1
1.745938042E0,-7.728428650E-1,4.926854553E0,3.472149628E1,3.507782042E1
1.755978042E0,-1.096320190E0,3.892505493E0,2.752446259E1,2.781994891E1
1.766019042E0,-2.290836182E0,1.974094849E0,1.845691864E1,1.870301651E1
1.776060042E0,-6.184090118E0,-1.647623749E0,7.410190430E0,9.791248992E0
1.786101042E0,-1.419034103E1,-1.653611298E0,-6.704707489E0,1.578142299E1
1.796142042E0,-1.983674927E1,3.290756836E0,-1.981324814E1,2.822924908E1
1.806183042E0,-2.353226440E1,5.539530487E0,-3.009955765E1,3.860618133E1
1.816223042E0,-2.546279984E1,3.967499542E0,-3.251718018E1,4.149050777E1
1.826264042E0,-2.594225281E1,3.422931976E0,-2.890983170E1,3.899352911E1
1.836305042E0,-2.274759613E1,4.038601685E0,-2.160023209E1,3.162804862E1
1.846346042E0,-1.496228577E1,7.032376099E0,-1.463850906E1,2.208189884E1
1.856387042E0,-4.553081818E0,9.119036865E0,-1.000309845E1,1.428108420E1
1.866428042E0,3.625311127E0,1.023092468E1,-6.134692841E0,1.246792512E1
1.876468042E0,4.986131287E0,8.086484070E0,-1.786834259E0,9.666721600E0
1.886509042E0,-2.019001465E0,5.104834442E0,1.435469925E1,1.536857482E1
1.896550042E0,-7.896828461E0,5.906716919E0,2.732552628E1,2.905053512E1
1.906591042E0,-5.542673950E0,3.293301544E0,3.798156693E1,3.852488151E1
1.916632042E0,-2.399659882E0,-1.421743469E0,4.396492447E1,4.405331208E1
1.926673042E0,-5.438191223E-1,-5.641318817E0,3.991973648E1,4.032003941E1
1.936713042E0,-2.501897278E0,-6.517895966E0,3.087898682E1,3.165839991E1
1.946754042E0,-5.695057068E0,-5.841153259E0,2.273592041E1,2.415522352E1
1.956795042E0,-1.221070770E1,-9.145831146E0,4.173920288E0,1.581673862E1
1.966836042E0,-1.812760345E1,-1.059930862E1,-1.969364685E1,2.878880124E1
1.976877042E0,-2.421200089E1,-1.141825562E1,-2.645104477E1,3.763316779E1
1.986918042E0,-4.012750443E1,-1.413765060E1,-1.815709213E1,4.625764554E1
1.996959042E0,-4.152454926E1,-1.619287674E1,-1.216101105E1,4.619943330E1
2.006999042E0,-3.302567276E1,-1.802132446E1,-7.625442810E0,3.838763570E1
2.017040042E0,-1.952689362E1,-1.841889771E1,-1.650617523E0,2.689386371E1
2.027081042E0,-4.087100830E0,-1.387180344E1,7.051236877E0,1.608885531E1
2.037122042E0,9.997260590E0,-1.018541931E1,2.058219910E1,2.504625532E1
2.047163042E0,1.762869095E1,-6.848109283E0,3.429608093E1,3.916488877E1
2.057204042E0,1.271515869E1,-7.070696411E0,4.041146393E1,4.295062776E1
2.067244042E0,1.433419189E0,-8.700507202E0,4.045487366E1,4.140471373E1
2.077285042E0,-2.213297424E0,-1.049931656E1,3.902070602E1,4.046912196E1
2.087326042E0,1.643881531E0,-1.496498016E1,3.332026016E1,3.656354352E1
2.097367042E0,3.838467865E0,-1.663311127E1,2.625809601E1,3.131903306E1
2.107408042E0,2.588117981E0,-1.858759689E1,2.022309586E1,2.758932255E1
2.117449042E0,3.577560425E-1,-2.310400497E1,1.049766998E1,2.537960028E1
2.127489042E0,-8.368347931E0,-2.161295563E1,-2.666105804E0,2.332932100E1
2.137530042E0,-2.795287170E1,-1.931972443E1,-1.569860458E1,3.743074905E1
2.147571042E0,-4.577061951E1,-1.800800217E1,-2.150787415E1,5.368264526E1
2.157612042E0,-4.767945007E1,-1.498369125E1,-2.099818405E1,5.421037443E1
2.167653042E0,-3.649366104E1,-1.213511490E1,-1.893831757E1,4.286849871E1
2.177694042E0,-1.630259857E1,-1.171628586E1,-1.395622787E1,2.445040636E1
2.187735042E0,3.245401154E0,-8.676856384E0,-9.472451935E0,1.324944569E1
2.197775042E0,1.548589691E1,-5.848937073E0,-7.567513275E0,1.820138251E1
2.207816042E0,1.736419098E1,-6.332581329E0,-5.380561066E0,1.925012083E1
2.217857042E0,1.068987030E1,-5.829627228E0,4.032314758E0,1.282643532E1
2.227898042E0,-2.810106354E0,-9.656419373E-1,2.982502853E1,2.997267904E1
2.237939042E0,-5.955665131E0,4.832999725E0,4.223572037E1,4.292649425E1
2.247980042E0,-2.606380005E0,2.476450195E0,4.238975006E1,4.254194322E1
2.258020042E0,-6.812034302E0,2.721790009E0,3.650788147E1,3.723757996E1
2.268061042E0,-1.076965439E1,1.874252472E0,2.627441208E1,2.845774074E1
2.278102042E0,-1.520657776E1,-2.992576904E0,1.301378769E1,2.023744533E1
2.288143042E0,-2.761861679E1,-5.778733063E0,-1.057311310E1,3.013258153E1
2.298184042E0,-3.379118088E1,-3.807781677E0,-4.106260986E1,5.331492319E1
2.308225042E0,-2.553345291E1,3.730542297E0,-5.377567291E1,5.964643460E1
2.318265042E0,-2.392370041E1,1.687740326E0,-4.601371399E1,5.188885992E1
2.328306042E0,-2.091211304E1,-4.439019012E0,-2.946308121E1,3.640184770E1
2.338347042E0,-1.504431519E1,-9.023685150E0,-1.481574051E1,2.296224031E1
2.348388042E0,-4.020040283E0,-1.042192749E1,-4.785548401E0,1.215231542E1
2.358429042E0,6.611301727E0,-1.175939621E1,3.614084473E0,1.396618474E1
2.368470042E0,1.170505920E1,-1.427326859E1,1.717288879E1,2.521195583E1
2.378510042E0,-1.222807159E0,-1.255469238E1,4.793766312E1,4.956949771E1
2.388551042E0,-1.535387146E1,-1.249451752E1,4.396402634E1,4.821503861E1
2.398592042E0,-2.829326385E1,-9.566456451E0,4.745746170E1,5.607349231E1
2.408633042E0,-2.972832962E1,-6.441105652E0,5.682183838E1,6.445139828E1
2.418674042E0,-1.663490753E1,-8.325686646E0,5.384063782E1,5.696359791E1
2.428715042E0,-8.224197693E0,-5.569168854E0,3.713822067E1,3.844347154E1
2.438755042E0,-8.406668243E0,6.536906433E-1,5.046605530E0,9.826881997E0
2.448796042E0,-1.030172745E1,9.065148926E0,-3.195794312E1,3.477948593E1
2.458837042E0,7.143145752E-1,1.815664307E1,-4.594141434E1,4.940432657E1
2.468878042E0,1.050515442E0,1.440933563E1,-4.026851120E1,4.278183645E1
2.478919042E0,-3.703897705E0,5.138364716E0,-3.131233566E1,3.194658064E1
2.488960042E0,-7.272626495E0,7.441026306E-1,-1.886631729E1,2.023320817E1
2.499000042E0,-5.116510162E0,-1.157243500E0,-8.295898590E0,9.815285130E0
2.509041042E0,1.056203613E0,-4.789889374E0,8.391549683E-1,4.976222196E0
2.519082042E0,2.299218750E0,-1.237461685E1,1.564950668E1,2.008294322E1
2.529123042E0,-1.933229828E0,-1.346914078E1,3.878719162E1,4.110476085E1
2.539164042E0,-5.235512695E0,-8.624016266E0,5.651826965E1,5.741166305E1
2.549205042E0,9.098080444E-1,-9.461374969E0,6.259742798E1,6.331495366E1
2.559246042E0,9.949809265E0,-9.322912903E0,5.860732544E1,6.017253530E1
2.569286042E0,1.795740738E1,-3.059487762E0,4.668596603E1,5.011395384E1
2.579327042E0,2.257171188E1,-4.649930420E0,2.625076126E1,3.493145426E1
2.589368917E0,1.414438660E1,-1.466111206E1,-5.146896973E0,2.101195915E1
2.599409917E0,-2.520758057E0,-8.549770660E0,-2.373284729E1,2.535154512E1
2.609450917E0,-1.647563873E1,4.153862000E-1,-2.978536102E1,3.404095987E1
2.619491917E0,-1.738529709E1,-2.079924774E0,-3.432556961E1,3.853335401E1
2.629531917E0,-6.506070557E0,2.666405182E0,-3.188489502E1,3.265096019E1
2.639572917E0,2.231709137E0,4.789290619E0,-2.376233597E1,2.434268763E1
2.649613917E0,4.469854889E0,-1.138382721E0,-1.417327652E1,1.490494164E1
2.659654917E0,-3.551963654E0,-9.960886230E0,-4.358486481E0,1.143818625E1
2.669695917E0,-1.836321350E1,-9.575437775E0,1.464823883E1,2.536666158E1
2.679736917E0,-2.538211761E1,1.182241516E0,4.337425278E1,5.026903016E1
2.689776917E0,-1.287038589E1,7.900570679E-1,6.182608200E1,6.315643624E1
2.699817917E0,3.179388428E0,-4.385879517E0,6.102539703E1,6.126535345E1
2.709858917E0,1.031295410E1,-4.866529999E0,4.636488373E1,4.774664993E1
2.719899917E0,1.408825333E1,-5.098397827E-1,2.864443359E1,3.192557586E1
2.729940917E0,1.638717270E1,3.153791656E0,1.142349472E1,2.022330494E1
2.739981917E0,8.282276917E0,2.576442261E0,-1.422581726E1,1.666157383E1
2.750021917E0,6.928791504E0,4.146676941E0,-2.690669724E1,2.809223091E1
2.760062917E0,4.979245605E0,9.186247101E0,-2.475282623E1,2.686786983E1
2.770103917E0,-4.522994385E0,7.145241394E0,-2.447096237E1,2.589092413E1
2.780144917E0,-3.645668793E0,7.837701416E0,-2.164214493E1,2.330456825E1
2.790185917E0,-3.833079071E0,7.589966583E0,-1.352093307E1,1.597234232E1
2.800226917E0,-6.367159424E0,3.641028442E0,-3.647914124E0,8.191769327E0
2.810266917E0,-1.044617706E1,9.056167603E-2,6.824458466E0,1.247814289E1
2.820307917E0,-1.262669266E1,-2.049238586E-1,1.825543762E1,2.219766573E1
2.830348917E0,-1.098625397E1,2.414479065E-1,3.114648056E1,3.302815957E1
2.840389917E0,-8.543783112E0,-2.400707703E0,3.914375015E1,4.013717483E1
2.850430917E0,-6.525530090E0,-5.163063354E0,3.938415024E1,4.025358439E1
2.860471917E0,-3.334765320E0,-1.000818787E1,3.279185898E1,3.444692293E1
2.870511917E0,-2.336341553E0,-1.514640289E1,2.163451080E1,2.651271525E1
2.880552917E0,-3.237018585E0,-1.611743362E1,1.147304169E1,2.004696090E1
2.890593917E0,-5.236710205E0,-1.313847839E1,-3.120560760E0,1.448380640E1
2.900634917E0,-7.908055115E0,-4.679419098E0,-2.854189682E1,2.998456558E1
2.910675917E0,6.539002075E0,3.121009827E-1,-4.230143372E1,4.280499094E1
2.920716917E0,1.090796677E1,2.663561096E0,-3.570285553E1,3.742689126E1
2.930757917E0,-6.038442993E-1,5.849835205E-1,-2.636856628E1,2.638196584E1
2.940797917E0,-8.851243744E0,-7.756869507E-1,-1.560594727E1,1.795805658E1
2.950838917E0,-1.232941086E1,-4.845423889E-1,-5.794749756E0,1.363188462E1
2.960879917E0,-1.329101120E1,-2.411485291E-1,1.567689972E0,1.338531969E1
2.970920917E0,-1.166135010E1,-1.926044769E0,1.089629105E1,1.607563041E1
2.980961917E0,-8.061486053E0,-1.221010895E0,1.172871002E1,1.428429430E1
2.991002917E0,-5.302273865E0,7.376660156E-1,7.158863068E0,8.939103966E0
3.001042917E0,-8.589887238E0,1.440155182E0,9.971065063E0,1.323942401E1
3.011083917E0,-1.094523926E1,-4.492158508E-1,1.686782318E1,2.011276998E1
3.021124917E0,-9.105265503E0,-3.577710114E0,2.029689240E1,2.253152703E1
3.031165917E0,-5.281916199E0,-7.057523804E0,1.851664444E1,2.050788634E1
3.041206917E0,-1.726809082E0,-9.008267212E0,1.437849976E1,1.705497004E1
3.051247917E0,1.641636200E0,-8.290809174E0,8.983867950E0,1.233460050E1
3.061287917E0,3.933669891E0,-4.706363068E0,-7.761360168E-1,6.182717789E0
3.071328917E0,5.186414795E0,1.001716919E0,-1.942450653E1,2.012992273E1
3.081369917E0,1.558514053E1,4.849914551E-1,-3.135799072E1,3.502078532E1
3.091410917E0,2.064746338E1,-2.202819214E0,-2.593117584E1,3.322041597E1
3.101451917E0,9.612261200E0,-2.040406952E0,-1.672846298E1,1.940103862E1
3.111492917E0,1.691781921E0,2.516417084E0,-1.214514404E1,1.251794731E1
3.121532917E0,4.532574463E-1,6.327940979E0,-8.658893738E0,1.073427781E1
3.131573917E0,4.191733246E0,5.763165436E0,-5.131928101E0,8.781878471E0
3.141614917E0,1.059541672E1,3.221301270E0,3.857478333E-1,1.108099448E1
3.151655917E0,1.259181519E1,-6.363267517E-1,1.130404312E1,1.693340227E1
3.161696917E0,1.097637451E1,3.908821564E0,2.594928818E1,2.844512683E1
3.171737917E0,1.541464508E1,8.541687469E0,3.190615082E1,3.644961135E1
3.181777917E0,2.274565018E1,9.337881775E0,2.640793442E1,3.608240067E1
3.191818917E0,2.440704529E1,8.811875610E0,1.835542969E1,3.178482044E1
3.201859917E0,1.656081161E1,1.788780212E-1,5.369783478E0,1.741054431E1
3.211900917E0,-7.333100739E0,-8.637787628E0,-1.738110580E1,2.074821873E1
3.221941917E0,-1.585996902E1,-1.343980179E1,-3.114333710E1,3.744428308E1
3.231982917E0,-1.141541153E1,-6.728058929E0,-2.754003021E1,3.056193157E1
3.242022917E0,-1.401056488E1,-1.476529541E0,-2.388867325E1,2.773345953E1
3.252063917E0,-7.339836731E0,2.469265137E0,-1.932780762E1,2.082149420E1
3.262104917E0,2.737657013E0,5.838758240E0,-1.117845428E1,1.290518128E1
3.272145917E0,1.091575058E1,6.465953979E0,-3.921395416E0,1.327928890E1
3.282186917E0,1.567555252E1,3.657643890E0,6.309379578E-1,1.610898471E1
3.292227917E0,1.330882416E1,2.610720978E0,8.055348816E0,1.577432436E1
3.302267917E0,6.041885834E0,4.927602997E0,2.112961075E1,2.252212481E1
3.312308917E0,2.519261169E0,5.868246918E0,3.303719879E1,3.364876673E1
3.322349917E0,5.867947540E0,3.525468750E0,3.485382111E1,3.551972106E1
3.332390917E0,9.156009979E0,3.745361481E0,2.785063431E1,2.955533933E1
3.342431917E0,8.505762177E0,4.772974548E0,1.663041687E1,1.927952389E1
3.352472917E0,1.234033813E0,-1.190474396E0,-2.755619659E0,3.245536696E0
3.362512917E0,-9.749525757E0,-8.945248260E0,-2.643891998E1,2.956496590E1
3.372553917E0,2.506537628E0,-5.243146820E0,-3.255535080E1,3.306998919E1
3.382594917E0,1.072983719E1,2.336940308E0,-2.759346909E1,2.969832036E1
3.392635917E0,1.063104263E1,1.261726227E0,-2.341146561E1,2.574311058E1
3.402676917E0,1.323472824E1,1.173409882E0,-1.472532852E1,1.983356303E1
3.412717917E0,1.443837524E1,6.770420837E-1,-6.709048462E0,1.593538192E1
3.422757917E0,1.488384888E1,-6.339317322E-1,5.312452698E-1,1.490681215E1
3.432798917E0,1.496198639E1,-8.193960571E-1,1.173394913E1,1.903202587E1
3.442839917E0,1.491648102E1,6.631210327E-1,2.679428101E1,3.067367976E1
3.452880917E0,1.534563858E1,1.328337708E0,3.794145035E1,4.094883098E1
3.462921917E0,1.604169113E1,-3.231779480E-1,3.772440170E1,4.099476530E1
3.472962917E0,1.544563065E1,-8.378077698E-1,2.939961319E1,3.322057621E1
3.483002917E0,1.161434784E1,-4.124223633E0,1.873354340E1,2.242427133E1
3.493043917E0,1.244212646E0,-1.113294891E1,3.700305176E0,1.179757920E1
3.503084917E0,-1.125449615E1,-1.168275558E1,-1.711316299E1,2.357988145E1
3.513125917E0,-9.289083252E0,-1.006911118E1,-2.579510880E1,2.920722009E1
3.523166917E0,-8.103099518E0,-1.464434692E1,-2.122421402E1,2.702932443E1
3.533207917E0,-7.809410248E0,-1.742720993E1,-1.048644333E1,2.178669383E1
3.543248917E0,-5.792354736E0,-1.815769089E1,3.005450134E0,1.929471021E1
3.553288917E0,-1.713636475E0,-1.938753342E1,1.876872025E1,2.703845154E1
3.563329917E0,6.697372742E0,-1.752525604E1,3.634651703E1,4.090304024E1
3.573370917E0,1.502261032E1,-1.204694824E1,4.805277374E1,5.176752696E1
3.583411792E0,1.629616196E1,-7.124734039E0,4.495990540E1,4.834997231E1
3.593452792E0,1.257355316E1,-8.096513214E0,3.298241272E1,3.621446278E1
3.603493792E0,5.652994537E0,-1.191612030E1,2.235286697E1,2.595382307E1
3.613533792E0,-1.071322174E0,-1.390712997E1,1.577868805E1,2.105998556E1
3.623574792E0,-4.058659973E0,-1.415621201E1,1.220172638E1,1.912467479E1
3.633615792E0,-5.946085052E0,-1.487247253E1,9.187594299E0,1.846505499E1
3.643656792E0,-9.559570770E0,-1.350551514E1,3.876039734E0,1.699435249E1
3.653697792E0,-1.303010376E1,-5.913752289E0,-5.297483826E0,1.525842079E1
3.663738792E0,-7.694000244E0,-2.597099304E-1,-1.585772369E1,1.762760590E1
3.673778792E0,-1.931134186E0,-4.252656555E-1,-1.931807785E1,1.941901805E1
3.683819792E0,-2.553390198E0,-3.073109436E-1,-1.443283676E1,1.466018480E1
3.693860792E0,-1.839824066E0,3.082689514E0,-7.491022339E0,8.306825080E0
3.703901792E0,1.814975739E0,8.090825043E0,-1.392703857E0,8.408044412E0
3.713942792E0,6.301296387E0,1.219244568E1,4.448748779E0,1.442752347E1
3.723983792E0,1.148995651E1,1.387749161E1,1.054646851E1,2.087658669E1
3.734023792E0,1.609123810E1,1.431488205E1,1.797971100E1,2.805554846E1
3.744064792E0,1.768168076E1,1.118878281E1,2.617277344E1,3.350887591E1
3.754105792E0,1.146376099E1,3.272345123E0,3.077884506E1,3.300701989E1
3.764146792E0,3.166664886E0,-1.198108521E0,3.087419678E1,3.105928617E1
3.774187792E0,-7.559280396E-2,-5.435197449E-1,2.910846863E1,2.911364068E1
3.784228792E0,1.773811340E0,1.332229614E-2,2.514141815E1,2.520391816E1
3.794268792E0,2.315085754E0,-1.095871124E0,1.907423492E1,1.924544085E1
3.804309792E0,-1.874551849E0,-2.969973907E0,1.328696960E1,1.374329840E1
3.814350792E0,-9.225615234E0,-3.646566925E0,3.834725647E0,1.063553231E1
3.824391792E0,-1.701272186E1,-1.635049896E0,-1.183828217E1,2.079064737E1
3.834432792E0,-1.851948853E1,-5.233866119E0,-1.876512772E1,2.687926390E1
3.844473792E0,-2.543914902E1,-1.381462234E1,-1.087772964E1,3.092440938E1
3.854513792E0,-3.619622955E1,-2.053908875E1,9.006770325E-1,4.162730377E1
3.864554792E0,-4.274810486E1,-2.440180618E1,1.463072525E1,5.135082020E1
3.874595792E0,-4.454317200E1,-2.646631302E1,3.071118576E1,6.023069672E1
3.884636792E0,-3.807587082E1,-2.152284302E1,4.437821503E1,6.230915406E1
3.894677792E0,-2.433294937E1,-1.094434113E1,5.132676544E1,5.784728065E1
3.904718792E0,-1.273386978E1,-6.927294617E0,3.970583130E1,4.226927832E1
3.914758792E0,-1.367855530E1,-9.421707458E0,1.621533005E1,2.321224623E1
3.924799792E0,-2.825329697E1,-1.147663422E1,3.333268433E0,3.067690664E1
3.934840792E0,-3.816239090E1,-9.628577271E0,4.477039948E0,3.961213786E1
3.944881792E0,-3.083632553E1,-7.474107513E0,1.282218613E1,3.422206470E1
3.954922792E0,-1.502949600E1,-7.070097656E0,1.947704727E1,2.559741005E1
3.964963792E0,6.210435333E0,-1.712438965E0,2.401066956E1,2.485989153E1
3.975003792E0,1.753872803E1,4.807702332E0,2.606888947E1,3.178534223E1
3.985044792E0,3.081791382E0,7.427554321E-1,2.362282608E1,2.383457648E1
3.995085792E0,-1.403900574E1,-4.015399933E0,2.035871384E1,2.505382900E1
4.005126792E0,-1.682980225E1,-6.732699280E0,1.747975067E1,2.518160374E1
4.015167792E0,-7.914791107E0,-5.241350555E0,1.751223312E1,1.991968832E1
4.025208792E0,9.579928436E0,1.164578247E0,1.967119354E1,2.191089060E1
4.035248792E0,2.681014801E1,1.396805328E1,2.199570969E1,3.738585018E1
4.045289792E0,3.779071381E1,2.677871338E1,2.241768219E1,5.145668096E1
4.055330792E0,3.854813873E1,2.910891769E1,2.148212769E1,5.286558331E1
4.065371792E0,2.362387390E1,2.126073807E1,1.823777435E1,3.664318238E1
4.075412792E0,4.691394196E0,1.424422897E1,1.688997711E1,2.258713274E1
4.085453792E0,-1.476978607E0,1.116408417E1,1.919922501E1,2.225822279E1
4.095493792E0,1.938468933E0,7.250023499E0,2.091765152E1,2.222315566E1
4.105534792E0,6.556216278E0,4.528832245E0,2.172387497E1,2.313916673E1
4.115575792E0,5.104085999E0,-5.224136353E-1,2.095237930E1,2.157143501E1
4.125616792E0,-5.969137115E0,-7.590715027E0,9.970017242E0,1.387987018E1
4.135657792E0,-1.878039597E1,-9.297166443E0,-5.373675385E0,2.163369972E1
4.145698792E0,-2.883229294E1,-1.254870483E1,-8.968899078E0,3.269881129E1
4.155738792E0,-3.085518631E1,-1.882889511E1,-6.591542816E0,3.674259449E1
4.165779792E0,-2.176848221E1,-2.354438919E1,-1.710792389E0,3.211124243E1
4.175820792E0,-1.058029816E1,-3.098167328E1,7.593708801E0,3.360760631E1
4.185861792E0,-1.315763855E-1,-3.503733948E1,2.150682632E1,4.111175074E1
4.195902792E0,1.062640228E1,-3.026346680E1,3.771661789E1,4.951102012E1
4.205943792E0,2.044209045E1,-1.806772797E1,4.980996964E1,5.679220837E1
4.215984792E0,2.367357056E1,-1.169173691E1,5.097439819E1,5.740665402E1
4.226024792E0,1.889445877E1,-1.671723633E1,4.160074081E1,4.865273064E1
4.236065792E0,6.108048248E0,-2.562940338E1,2.861030457E1,3.889375398E1
4.246106792E0,-5.633085938E0,-3.069576782E1,2.422307785E1,3.950594031E1
4.256147792E0,-9.451495514E0,-3.220223511E1,2.894440979E1,4.431809530E1
4.266188792E0,-2.592758331E0,-3.074950607E1,3.151157135E1,4.410480301E1
4.276229792E0,6.411018219E0,-2.158571228E1,2.754571838E1,3.557823394E1
4.286269792E0,7.384443970E0,-1.423479858E1,1.485346207E1,2.185828993E1
4.296310792E0,-3.323688354E0,-1.795471298E1,-5.170248413E-1,1.826707249E1
4.306351792E0,-1.302112244E1,-1.894729889E1,-6.172863464E0,2.380449554E1
4.316392792E0,-1.347123642E1,-1.731883530E1,-8.598269806E0,2.356579110E1
4.326433792E0,-2.209405518E0,-1.460108688E1,-7.493117981E0,1.655959021E1
4.336474792E0,1.339743988E1,-8.847950592E0,-3.373235321E0,1.640598493E1
4.346514792E0,2.633234161E1,-2.631677399E0,7.566764832E-1,2.647433663E1
4.356555792E0,3.191528183E1,1.998194733E0,7.983198853E0,3.295920904E1
4.366596792E0,2.668515793E1,6.391408997E0,2.988415558E1,4.057105517E1
4.376637792E0,1.667876633E1,6.295458527E0,5.394946152E1,5.681864520E1
4.386678792E0,7.379504242E0,-2.529739380E0,4.973362839E1,5.034173673E1
4.396719792E0,8.132588196E-1,-5.476511536E0,3.616943527E1,3.659073129E1
4.406759792E0,2.161505127E0,-6.712042236E0,2.796095490E1,2.883641125E1
4.416800792E0,8.227341156E0,-1.016296600E1,2.227772324E1,2.583160802E1
4.426841792E0,9.404493256E0,-1.306617874E1,1.634436172E1,2.294139666E1
4.436882792E0,2.673590240E0,-1.530716858E1,3.633693695E0,1.595810843E1
4.446923792E0,-4.196074219E0,-1.176568314E1,-1.990800110E1,2.350248596E1
4.456964792E0,-2.156116333E0,-7.566465454E0,-3.633184753E1,3.717396108E1
4.467004792E0,5.357059937E0,-3.025658112E0,-4.000865158E1,4.047894390E1
4.477045792E0,1.524250305E1,6.139782257E0,-3.734074951E1,4.079659789E1
4.487086792E0,2.522359726E1,1.631157990E1,-3.215837631E1,4.400521179E1
4.497127792E0,3.315694977E1,1.794154037E1,-2.760484543E1,4.672589946E1
4.507168792E0,3.190824646E1,1.175206146E1,-2.173809540E1,4.035829447E1
4.517209792E0,2.402578812E1,6.673422546E0,-1.077938416E1,2.716556986E1
4.527249792E0,1.522663605E1,6.585704956E0,7.804320831E0,1.833383153E1
4.537290792E0,1.257445129E1,8.971144409E0,1.747840347E1,2.332579785E1
4.547331792E0,1.804931625E1,6.722969513E0,2.290521835E1,2.992699725E1
4.557372792E0,1.784873337E1,5.168452148E0,2.179827026E1,2.864358160E1
4.567413792E0,1.019215530E1,2.663261719E0,1.340522369E1,1.704913532E1
4.577454792E0,-5.274880829E0,-3.322191467E0,-2.170486450E-1,6.237662544E0
4.587493917E0,-2.035467224E1,-1.073612411E1,-1.476290039E1,2.734081694E1
4.597534917E0,-1.960832428E1,-9.036408691E0,-1.916509598E1,2.886942963E1
4.607575917E0,-2.133184021E1,-8.236472168E0,-1.420096893E1,2.691754816E1
4.617616917E0,-2.240346176E1,-1.593331650E1,-1.336720276E0,2.752403485E1
4.627657917E0,-2.334904541E1,-1.886287445E1,1.800545746E1,3.500260637E1
4.637698917E0,-2.609867752E1,-1.485031860E1,4.058091156E1,5.048250503E1
4.647738917E0,-1.980965561E1,-5.241200867E0,5.803716110E1,6.154839324E1
4.657779917E0,-7.147187347E0,5.178930359E0,5.637561630E1,5.706236693E1
4.667820917E0,-2.618654480E0,9.647288361E0,3.277644104E1,3.426693175E1
4.677861917E0,-1.529609161E1,6.797813873E0,6.802454224E0,1.806804017E1
4.687902917E0,-4.520270050E1,6.947203217E0,-4.460125122E0,4.595041329E1
4.697943917E0,-5.183391083E1,6.833739166E0,-5.649252319E-1,5.228549936E1
4.707983917E0,-3.274081512E1,7.330256653E0,6.858138428E0,3.424511206E1
4.718024917E0,-1.524804153E1,1.272279282E1,7.771389313E0,2.132526013E1
4.728065917E0,-2.174677734E0,2.124801453E1,2.212099915E0,2.147325617E1
4.738106917E0,1.194755493E1,2.810360825E1,-4.562811584E0,3.087678926E1
4.748147917E0,1.556672882E1,1.863774261E1,-7.901319122E0,2.553662742E1
4.758188917E0,-8.443791046E0,8.287665710E0,-2.065554657E0,1.201039242E1
4.768228917E0,-3.358775391E1,3.626658325E0,8.079299011E0,3.473564359E1
4.778269917E0,-3.899436081E1,-3.275189209E0,2.063923050E1,4.424098637E1
4.788310917E0,-2.961022522E1,-1.129401398E1,3.517190964E1,4.734325102E1
4.798351917E0,-1.214140182E1,-1.594035187E1,4.642026855E1,5.056035788E1
4.808392917E0,1.094523926E0,-8.925339661E0,4.600143951E1,4.687208240E1
4.818433917E0,1.177077255E1,7.051835632E-1,3.327714981E1,3.530463241E1
4.828473917E0,2.092842911E1,4.931494904E0,1.972089020E1,2.917588554E1
4.838514917E0,1.784888306E1,4.196223907E0,8.077652435E0,2.003595244E1
4.848555917E0,1.794767761E0,6.730004883E-1,2.193239136E0,2.912802582E0
4.858596917E0,-9.643695831E0,-1.573827209E0,6.265670471E0,1.160760216E1
4.868637917E0,-3.453767853E0,-2.822829895E0,1.252924530E1,1.329958153E1
4.878678917E0,1.242356506E1,-3.090024261E0,1.246368164E1,1.786719281E1
4.888718917E0,2.460658035E1,-5.703140259E-1,6.543343048E0,2.546810541E1
4.898759917E0,2.892060928E1,1.238973541E0,-6.810537415E0,2.973752035E1
4.908800917E0,2.521132278E1,-1.145118713E0,-3.136038574E1,4.025414124E1
4.918841917E0,1.997595978E1,-4.842130737E0,-5.398149490E1,5.776233194E1
4.928882917E0,1.114971405E1,-3.572021942E0,-6.137267487E1,6.247944209E1
4.938923917E0,4.556524658E0,-1.376836853E0,-5.469670761E1,5.490343723E1
4.948963917E0,5.249583435E0,-2.253414001E0,-4.511513260E1,4.547539104E1
4.959004917E0,1.052895493E1,-4.192481689E0,-3.521037964E1,3.698927721E1
4.969045917E0,1.762180527E1,-7.996970215E0,-2.144784897E1,2.888753674E1
4.979086917E0,2.006307861E1,-1.219843323E1,-5.126838684E0,2.403358840E1
4.989127917E0,2.146970352E1,-1.160985718E1,9.321565704E0,2.612716097E1
4.999168917E0,2.734169266E1,-8.343349915E0,2.138183624E1,3.569821517E1
5.009208917E0,3.507506104E1,-5.978567505E0,3.170975922E1,4.766038193E1
5.019249917E0,4.306484619E1,-4.767136688E0,3.791944611E1,5.757769501E1
5.029290917E0,4.435920456E1,-8.416248322E0,3.655518311E1,5.809349083E1
5.039331917E0,3.818858643E1,-1.606653946E1,3.053066116E1,5.146477528E1
5.049372917E0,2.837918518E1,-2.551025116E1,2.527104858E1,4.576873346E1
5.059413917E0,1.373259293E1,-3.219430161E1,2.201097794E1,4.134658769E1
5.069453917E0,-9.126970367E0,-2.848037476E1,1.874866196E1,3.529795546E1
5.079494917E0,-3.575360001E1,-1.788914932E1,5.773793335E0,4.039403751E1
5.089535917E0,-4.757870956E1,-1.070184540E1,-1.097622482E1,4.998740451E1
5.099576917E0,-4.019246933E1,-1.770458313E1,-1.354608078E1,4.596066970E1
5.109617917E0,-2.520353897E1,-2.990406418E1,-4.843028870E0,3.940718665E1
5.119658917E0,-1.278191986E1,-3.972469208E1,7.830516357E0,4.245875201E1
5.129698917E0,-8.824599152E0,-4.438465164E1,2.821856918E1,5.333065252E1
5.139739917E0,-1.487127502E1,-3.688644424E1,6.180063492E1,7.349206125E1
5.149780917E0,-2.342493759E1,-1.909159882E1,8.077562622E1,8.624336866E1
5.159821917E0,-1.822115891E1,-8.704848175E0,6.504828140E1,6.811067410E1
5.169862917E0,6.385720825E-1,-1.969304810E0,4.454766266E1,4.459574177E1
5.179903917E0,1.153770721E1,3.000211029E0,2.438264603E1,2.714099079E1
5.189943917E0,-1.742825775E0,1.977986755E0,6.850803680E0,7.340530250E0
5.199984917E0,-3.061403778E1,3.190764771E0,1.447938995E0,3.081390622E1
5.210025917E0,-4.356360901E1,7.689659271E0,4.211641846E0,4.443711080E1
5.220066917E0,-3.162219131E1,8.629405060E0,6.759643250E0,3.346822959E1
5.230107917E0,-1.198767151E1,1.276485535E1,2.653382263E0,1.771118962E1
5.240148917E0,5.730084229E-1,2.407338913E1,-8.932824097E0,2.568368644E1
5.250188917E0,4.233945465E0,2.454520798E1,-2.176698532E1,3.307862117E1
5.260229917E0,-4.134103088E0,1.534204605E1,-2.394106430E1,2.873401721E1
5.270270917E0,-2.312660797E1,1.154294632E1,-1.805949509E1,3.153133313E1
5.280311917E0,-2.968866211E1,1.260423935E1,-1.305300613E1,3.479460413E1
5.290352917E0,-2.420780960E1,1.547347275E1,-9.728868713E0,3.033310553E1
5.300393917E0,-1.252580246E1,1.480885483E1,-6.185437317E0,2.035823036E1
5.310433917E0,-3.564986572E0,1.111977631E1,-1.981130219E0,1.184413067E1
5.320474917E0,-4.453239441E-1,8.240813141E0,1.704355774E0,8.426988978E0
5.330515917E0,2.143542480E0,7.096442871E0,5.588778076E0,9.283787814E0
5.340556917E0,7.563471680E0,8.782835999E0,1.582703751E1,1.961732470E1
5.350597917E0,1.296858170E1,8.872349854E0,2.800870560E1,3.211526572E1
5.360637917E0,1.534503983E1,4.132306824E0,3.203608063E1,3.576110553E1
5.370678917E0,1.281080978E1,-3.960314484E0,2.775438446E1,3.082380241E1
5.380719917E0,6.130351868E0,-1.401310959E1,2.188479034E1,2.670004687E1
5.390760917E0,-3.243006134E0,-2.508513519E1,1.774200531E1,3.089595198E1
5.400801917E0,-1.922916275E1,-3.496653671E1,9.046737213E0,4.091775707E1
5.410842917E0,-3.149929688E1,-3.401137299E1,-3.564687195E0,4.649393714E1
5.420883917E0,-3.206616806E1,-3.592753830E1,-1.665137329E0,4.818505811E1
5.430923917E0,-2.508109360E1,-5.414630219E1,1.742167145E1,6.216428181E1
5.440964917E0,-1.373049728E1,-6.703225571E1,4.102743301E1,7.978157758E1
5.451005917E0,-5.854325867E-1,-7.130691650E1,6.751365463E1,9.819935150E1
5.461046917E0,9.685009918E0,-6.073664749E1,8.425573929E1,1.043157197E2
5.471087917E0,1.892783936E1,-4.461352570E1,7.379698837E1,8.828717501E1
5.481128917E0,3.156560898E1,-3.472389130E1,4.813779694E1,6.722636232E1
5.491168917E0,3.876443893E1,-2.573658051E1,2.217174362E1,5.154259905E1
5.501209917E0,3.189252914E1,-1.898576889E1,7.704478455E-1,3.712393332E1
5.511250917E0,5.723647614E0,-1.448313217E1,-1.150282974E1,1.936069089E1
5.521291917E0,-2.124097916E1,-6.069578247E0,-1.414797913E1,2.623326684E1
5.531332917E0,-2.295895660E1,-1.282383270E0,-8.929530945E0,2.466768571E1
5.541373917E0,-1.649569702E0,-5.081333313E0,-8.142617340E0,9.738749693E0
5.551413917E0,2.036649765E1,-2.414329376E0,-8.098459167E0,2.205013047E1
5.561454917E0,3.113719986E1,7.075187073E0,-3.223247223E0,3.209318946E1
5.571495917E0,1.995934433E1,5.162464600E0,2.296224976E-1,2.061744876E1
5.581536917E0,-3.766617279E0,-8.778495026E0,7.105723572E-1,9.578846158E0
5.591578708E0,-2.106524460E1,-1.610231506E1,1.950444031E-1,2.651541293E1
5.601619708E0,-1.981160156E1,-1.675196411E1,-1.317260742E0,2.597812607E1
5.611659708E0,-2.825673981E0,-1.724399094E1,1.468296661E0,1.753555109E1
5.621700708E0,1.506302628E1,-1.843416595E1,1.152603149E1,2.644924644E1
5.631741708E0,3.351141266E1,-1.493055176E1,2.733345978E1,4.574990904E1
5.641782708E0,4.244917648E1,-6.531218262E0,3.998155792E1,5.867805697E1
5.651823708E0,4.008199905E1,1.236877899E0,3.693554214E1,5.451908646E1
5.661864708E0,3.324451767E1,-1.260079651E0,2.387729691E1,4.095010456E1
5.671904708E0,2.108665009E1,-7.401059418E0,1.139415573E1,2.508484158E1
5.681945708E0,6.823560333E0,-1.017464172E1,3.049757996E0,1.262479044E1
5.691986708E0,-3.537892914E0,-1.159024796E1,-1.689237213E0,1.223536090E1
5.702027708E0,-6.652765503E0,-1.533052002E1,-8.616831207E0,1.880249752E1
5.712068708E0,-8.258177032E0,-2.103425903E1,-2.295416656E1,3.221073274E1
5.722108708E0,-8.731792145E0,-2.427292419E1,-3.936259506E1,4.706201157E1
5.732149708E0,-9.563013611E0,-1.715926712E1,-4.901886475E1,5.280852941E1
5.742190708E0,-1.559337341E1,-1.102652023E1,-5.857274734E1,6.160766328E1
5.752231708E0,-1.753962616E1,-1.642190048E1,-6.415134659E1,6.850337634E1
5.762272708E0,-3.053889404E1,-2.137929153E1,-5.663637405E1,6.780396022E1
5.772313708E0,-4.048555984E1,-2.171354645E1,-4.179952744E1,6.211086176E1
5.782354708E0,-3.069457031E1,-1.825558731E1,-3.078004257E1,4.714694195E1
5.792394708E0,-1.487621475E1,-1.695748672E1,-2.489098892E1,3.359195515E1
5.802435708E0,-2.310295715E0,-1.791968582E1,-2.015378998E1,2.706709916E1
5.812476708E0,4.832700348E0,-1.918560333E1,-1.534908142E1,2.504070024E1
5.822517708E0,5.913452911E0,-2.136237671E1,-7.464527435E0,2.338886987E1
5.832558708E0,3.449127502E0,-2.316627548E1,5.017565918E0,2.395305342E1
5.842599708E0,3.478167114E0,-1.923440186E1,2.881762344E1,3.482119013E1
5.852639708E0,1.236099518E1,-1.075603271E1,6.125486984E1,6.340856031E1
5.862680708E0,1.580533264E1,-9.884994049E0,7.402870651E1,7.633983911E1
5.872721708E0,1.905238037E0,-1.227612167E1,5.857020264E1,5.987321381E1
5.882762708E0,-1.217717743E1,-1.525851974E1,4.213887177E1,4.644125955E1
5.892803708E0,-2.154275162E1,-1.450783081E1,3.333971970E1,4.226232615E1
5.902844708E0,-2.799089264E1,-8.036787415E0,2.455014771E1,3.808923437E1
5.912884708E0,-3.138328812E1,2.640209656E0,1.129401398E1,3.345797710E1
5.922925708E0,-3.578413651E1,1.128518234E1,-7.032076721E0,3.817472814E1
5.932966708E0,-3.431958206E1,1.339220078E1,-2.424957275E1,4.410472235E1
5.943007708E0,-3.063963455E1,6.521937561E0,-2.723676086E1,4.151101080E1
5.953048708E0,-2.994492920E1,-7.709418182E0,-1.361778168E1,3.378724451E1
5.963088708E0,-3.266177948E1,-2.653696609E1,1.163470551E1,4.366198324E1
5.973129708E0,-4.416820175E1,-4.387840439E1,5.322945877E1,8.191165789E1
5.983170708E0,-4.798047409E1,-5.076558243E1,1.041152412E2,1.253764480E2
5.993211708E0,-4.978257660E1,-3.314722000E1,1.228634541E2,1.366472520E2
6.003252708E0,-4.673102234E1,-2.428070801E1,8.714667755E1,1.018228100E2
6.013293708E0,-2.235705826E1,-3.191543152E1,5.147645416E1,6.456204888E1
6.023333708E0,-8.458011475E0,-3.352922562E1,2.333781876E1,4.171811013E1
6.033374708E0,-1.067460205E1,-3.188953537E1,-3.051105194E0,3.376683044E1
6.043415708E0,-2.683963669E1,-2.714036133E1,-2.227487915E1,4.419429320E1
6.053456708E0,-3.965059616E1,-2.678050964E1,-3.067750580E1,5.683726625E1
6.063497708E0,-2.578627716E1,-3.194701584E1,-2.638503204E1,4.880280552E1
6.073538708E0,-1.626966705E0,-3.372427002E1,-2.171264832E1,4.014240284E1
6.083578708E0,1.624317215E1,-3.104319534E1,-2.727388367E1,4.440028546E1
6.093619708E0,2.865057083E1,-2.620061554E1,-3.867911636E1,5.480329832E1
6.103660708E0,3.208502884E1,-1.859103973E1,-5.107558777E1,6.311728369E1
6.113701708E0,1.845736771E1,-1.266291733E1,-7.030684616E1,7.378398549E1
6.123742708E0,-9.677375793E-1,-2.392340103E1,-7.923278458E1,8.277137056E1
6.133783708E0,-2.407294006E1,-3.202799744E1,-6.693585617E1,7.801094734E1
6.143823708E0,-3.401481583E1,-2.867092850E1,-4.568035721E1,6.376303687E1
6.153864708E0,-2.375964157E1,-2.405886932E1,-2.362147888E1,4.124710930E1
6.163905708E0,-1.012299911E1,-2.364153717E1,-6.207591248E0,2.645622006E1
6.173946708E0,7.150630188E0,-1.882934418E1,8.317453766E0,2.179118518E1
6.183987708E0,2.462618958E1,-1.111588440E1,1.935490128E1,3.323588877E1
6.194028708E0,3.650339081E1,-2.311792603E0,2.290476929E1,4.315634810E1
6.204068708E0,3.851640472E1,3.681444397E0,1.413121399E1,4.119171852E1
6.214109708E0,3.321398117E1,2.867437134E0,2.110910339E0,3.340429139E1
6.224150708E0,2.279370026E1,-8.105644226E-1,1.732646942E0,2.287382459E1
6.234191708E0,1.534264481E1,2.130070496E-1,1.191986252E1,1.943000885E1
6.244232708E0,1.405876465E1,4.226161652E0,1.734293518E1,2.272194328E1
6.254273708E0,1.770368500E1,8.668024750E0,1.130928223E1,2.272564587E1
6.264313708E0,2.197370544E1,1.292277695E1,-1.043779449E0,2.551335671E1
6.274354708E0,1.751522690E1,1.127320724E1,-1.222882004E1,2.415393166E1
6.284395708E0,7.449558563E0,5.785618744E0,-1.773077866E1,2.008357087E1
6.294436708E0,-1.073268127E0,5.484594727E-1,-1.854822876E1,1.858734791E1
6.304477708E0,-1.882320694E1,-5.836512909E0,-2.845792145E1,3.461547769E1
6.314518708E0,-3.623440018E1,-2.070344696E1,-4.640514999E1,6.240995448E1
6.324558708E0,-4.313100861E1,-3.534614731E1,-4.906197510E1,7.427456788E1
6.334599708E0,-4.384427536E1,-6.153508713E1,-3.602588379E1,8.370634225E1
6.344640708E0,-2.592848145E1,-1.007819728E2,-1.374381958E1,1.049675415E2
6.354681708E0,-2.137255554E0,-1.378676527E2,2.601230713E1,1.403164198E2
6.364722708E0,6.331533508E0,-1.288527992E2,1.167886368E2,1.740193031E2
6.374763708E0,-1.616084335E1,-6.959627380E1,1.916579951E2,2.045424193E2
6.384803708E0,-3.077749786E1,-6.465968948E1,1.522245973E2,1.682273992E2
6.394844708E0,-2.559751968E1,-8.254779099E1,9.090506195E1,1.254316591E2
6.404885708E0,-2.764421356E1,-9.447229385E1,4.884417801E1,1.098861710E2
6.414926708E0,-3.545781509E1,-8.168423676E1,2.799223984E1,9.334418395E1
6.424967708E0,-1.150986511E1,-5.907929398E1,1.741209137E1,6.265796755E1
6.435008708E0,2.691986984E1,-4.411446350E1,8.428971863E-1,5.168632080E1
6.445048708E0,4.713667877E1,-3.012036438E1,-1.892484558E1,5.905296450E1
6.455089708E0,4.922289047E1,-1.860885269E1,-3.521382248E1,6.331820938E1
6.465130708E0,4.021656921E1,-1.359907059E1,-4.972030609E1,6.537901803E1
6.475171708E0,1.447459991E1,-1.658925247E1,-6.255746109E1,6.631857416E1
6.485212708E0,-2.358615234E1,-1.963227448E1,-7.092326431E1,7.727769539E1
6.495253708E0,-4.242672318E1,-1.855436600E1,-6.755945938E1,8.190587213E1
6.505293708E0,-3.550751175E1,-1.913815201E1,-6.462436295E1,7.617979088E1
6.515334708E0,-3.741035477E1,-2.360950378E1,-7.084572556E1,8.352281211E1
6.525375708E0,-4.522425568E1,-3.889915878E1,-6.620687210E1,8.911637206E1
6.535416708E0,-5.154007187E1,-5.389707047E1,-4.943978943E1,8.947382853E1
6.545457708E0,-4.458972519E1,-6.777052048E1,-2.878633850E1,8.607984853E1
6.555498708E0,-2.736085281E1,-8.196879501E1,-9.873468018E0,8.697692219E1
6.565538708E0,-1.010653336E1,-9.816631210E1,5.882018280E0,9.886033071E1
6.575579708E0,3.276386719E0,-1.146389571E2,3.253334656E1,1.192109216E2
6.585623167E0,1.082009949E1,-1.038541841E2,1.003094055E2,1.447920680E2
6.595664167E0,1.030636780E1,-5.587460815E1,1.891682227E2,1.975166057E2
6.605705167E0,2.349199814E1,-4.002556641E1,1.889044711E2,1.945220274E2
6.615746167E0,4.448329651E1,-7.456728653E1,1.017045044E2,1.337267741E2
6.625787167E0,4.782389969E1,-1.124814935E2,2.961381775E1,1.257624347E2
6.635827167E0,2.650328613E1,-1.310259801E2,-6.217171326E0,1.338240817E2
6.645868167E0,-1.094074860E0,-1.176593761E2,-2.582190308E1,1.204645029E2
6.655909167E0,-1.514191223E1,-8.421262894E1,-3.188205093E1,9.130996413E1
6.665950167E0,-1.589649307E1,-7.573740326E1,-3.158836166E1,8.358634659E1
6.675991167E0,-2.493125519E1,-7.543907364E1,-3.604983398E1,8.724799050E1
6.686032167E0,-4.928935226E1,-5.857589081E1,-4.425142868E1,8.842377605E1
6.696072167E0,-6.805403091E1,-4.623899551E1,-5.637831070E1,9.973920868E1
6.706113167E0,-7.409576706E1,-4.898368790E1,-5.687288223E1,1.054708922E2
6.716154167E0,-7.466892517E1,-5.361221283E1,-3.751738220E1,9.928379383E1
6.726195167E0,-6.784371826E1,-5.025858673E1,-1.847712662E1,8.642973942E1
6.736236167E0,-5.422758316E1,-4.633479630E1,-1.051204010E1,7.209748338E1
6.746277167E0,-4.050037903E1,-4.587869476E1,-1.457144852E1,6.290836547E1
6.756317167E0,-2.703557922E1,-5.018449081E1,-2.282124298E1,6.140207483E1
6.766358167E0,-8.293503571E0,-6.406138367E1,-2.579615662E1,6.955634245E1
6.776399167E0,9.185947723E0,-8.556970688E1,-1.800815186E1,8.792525180E1
6.786440167E0,7.556885376E0,-1.109811635E2,5.695655823E0,1.113838662E2
6.796481167E0,-2.951831635E1,-1.231105902E2,5.367029205E1,1.375065405E2
6.806522167E0,-8.109012222E1,-9.709379242E1,1.151481981E2,1.710611586E2
6.816562167E0,-7.605609055E1,-5.295567810E1,1.389320892E2,1.670058627E2
6.826603167E0,-4.327650604E1,-3.620131897E1,1.028472281E2,1.173070492E2
6.836644167E0,-1.754800873E1,-4.488925232E1,4.557377884E1,6.633209556E1
6.846685167E0,-2.841735580E1,-4.706497787E1,9.510921936E0,5.579530347E1
6.856726167E0,-5.266198883E1,-3.816568405E1,-7.848628693E0,6.550958311E1
6.866767167E0,-4.768753326E1,-2.442979797E1,-1.582075058E1,5.586780832E1
6.876807167E0,-1.748738480E1,-1.343141922E1,-2.090762238E1,3.038651547E1
6.886848167E0,-1.036594391E0,-4.909790039E-1,-2.931054840E1,2.933298205E1
6.896889167E0,3.714974670E0,8.569230194E0,-3.970777725E1,4.079142456E1
6.906930167E0,-2.105371857E0,1.138487503E1,-4.784171265E1,4.922273295E1
6.916971167E0,-1.783301605E1,1.638013733E1,-5.332870239E1,5.856855692E1
6.927011167E0,-2.876972305E1,2.346161133E1,-5.691584290E1,6.795261101E1
6.937052167E0,-2.603655670E1,2.708542557E1,-5.787908981E1,6.900370715E1
6.947093167E0,-1.927257248E1,2.489413239E1,-5.476541473E1,6.316961713E1
6.957134167E0,-1.482053055E1,1.337124435E1,-4.622238007E1,5.034825439E1
6.967175167E0,-1.501228180E1,-9.759704590E-2,-3.212065475E1,3.545581182E1
6.977216167E0,-2.339499985E1,-1.763467850E1,-1.605097183E1,3.340571209E1
6.987256167E0,-4.149176743E1,-3.749732391E1,2.715652771E0,5.599098887E1
6.997297167E0,-5.986665665E1,-4.955415161E1,2.043939606E1,8.035794566E1
7.007338167E0,-6.511294693E1,-5.811350235E1,3.185795105E1,9.290750270E1
7.017379167E0,-6.419355881E1,-6.195705963E1,4.042523529E1,9.794738322E1
7.027420167E0,-5.576877823E1,-5.928945694E1,4.523817673E1,9.312297763E1
7.037461167E0,-3.886173660E1,-5.576563477E1,5.008300186E1,8.442954263E1
7.047501167E0,-1.851903946E1,-4.892515961E1,5.564633286E1,7.637499869E1
7.057542167E0,5.431455231E0,-4.029530548E1,5.072950745E1,6.501303927E1
7.067583167E0,2.441393097E1,-3.151426575E1,3.443334549E1,5.267679045E1
7.077624167E0,3.086551483E1,-2.298515213E1,1.719818619E1,4.215180699E1
7.087665167E0,2.086810455E1,-2.087618774E1,2.900218964E0,2.965980904E1
7.097706167E0,4.176614685E0,-2.232352798E1,-4.929099884E0,2.323962215E1
7.107746167E0,-4.397854614E0,-2.064881058E1,-6.715634766E0,2.215432810E1
7.117787167E0,2.352507935E0,-1.828447723E1,-5.597160645E0,1.926615189E1
7.127828167E0,1.823582840E1,-1.653237076E1,-6.911577301E0,2.556627898E1
7.137869167E0,2.809552505E1,-1.351225113E1,-1.298579590E1,3.377233119E1
7.147910167E0,2.658756088E1,-1.362990646E1,-2.172013275E1,3.693828516E1
7.157951167E0,2.098336487E1,-1.704295898E1,-2.671165283E1,3.800363731E1
7.167991167E0,1.786115753E1,-2.430959793E1,-2.334724915E1,3.814540002E1
7.178032167E0,6.834188232E0,-3.120545792E1,-2.098381393E1,3.822050732E1
7.188073167E0,-1.725387039E1,-2.713766693E1,-3.267929306E1,4.584850276E1
7.198114167E0,-3.251822800E1,-2.470896744E1,-5.251783859E1,6.652887790E1
7.208155167E0,-3.676504669E1,-2.316926926E1,-6.080475586E1,7.473755436E1
7.218196167E0,-3.213637207E1,-2.707898895E1,-5.479071213E1,6.905099701E1
7.228236167E0,-1.780053360E1,-3.765240143E1,-4.153353058E1,5.881833466E1
7.238277167E0,-8.653504944E0,-5.184708344E1,-2.821527603E1,5.965823506E1
7.248318167E0,-4.695884857E0,-6.610164093E1,-1.454240891E1,6.784511718E1
7.258359167E0,-9.854307861E0,-7.145450958E1,4.600383453E0,7.227736749E1
7.268400167E0,-3.221106674E1,-6.453574722E1,2.896327057E1,7.772571346E1
7.278441167E0,-5.857544174E1,-4.402435089E1,5.329711807E1,9.060799436E1
7.288481167E0,-4.677577927E1,-2.408880707E1,7.205730606E1,8.922163139E1
7.298522167E0,-8.901688843E0,-1.017030075E1,8.166926788E1,8.278009663E1
7.308563167E0,7.592960358E0,-1.202584213E1,5.422114655E1,5.605538920E1
7.318604167E0,-2.116658386E1,-2.538196793E1,1.353290817E1,3.571285723E1
7.328645167E0,-6.498166992E1,-2.378673523E1,-6.854695587E0,6.953713433E1
7.338686167E0,-7.475634338E1,-1.869986343E1,-1.885344406E1,7.933251617E1
7.348726167E0,-4.919220428E1,-1.078671890E1,-1.569396423E1,5.274966142E1
7.358767167E0,-3.010674271E1,1.328786774E0,-4.734354858E0,3.050566745E1
7.368808167E0,-1.577299988E1,1.063179108E1,-2.119442596E0,1.913934543E1
7.378849167E0,-2.277663574E0,1.857442429E1,-7.758067017E0,2.025795135E1
7.388890167E0,3.846251678E0,2.472273880E1,-1.631053207E1,2.986705413E1
7.398930167E0,5.059329071E0,2.793805252E1,-2.369258102E1,3.697931834E1
7.408971167E0,-1.314266968E0,2.356369904E1,-2.948583389E1,3.776757353E1
7.419012167E0,-1.586730377E1,1.403631134E1,-3.080728592E1,3.738820978E1
7.429053167E0,-2.916744598E1,9.125174103E0,-2.530532730E1,3.967831016E1
7.439094167E0,-3.089455444E1,2.728376312E0,-1.386581589E1,3.397320094E1
7.449135167E0,-2.342299164E1,-2.508184204E0,1.809137878E0,2.362626727E1
7.459175167E0,-1.477831833E1,-7.184010773E0,1.986953110E1,2.578385094E1
7.469216167E0,-1.171538773E1,-1.040546173E1,3.648243439E1,3.970506217E1
7.479257167E0,-1.576701233E1,-6.472989349E0,4.160777618E1,4.496337741E1
7.489298167E0,-1.102098175E1,-4.254153442E-1,3.915078552E1,4.067464842E1
7.499339167E0,-3.350632324E0,5.390290833E-1,4.355313080E1,4.368515184E1
7.509380167E0,-2.633323975E0,-3.084336090E0,4.509642151E1,4.527841381E1
7.519420167E0,-6.952442322E0,-9.160051575E0,3.426255066E1,3.614091002E1
7.529461167E0,-1.221504868E1,-1.408930115E1,1.966819977E1,2.710265491E1
7.539502167E0,-1.642669052E1,-1.564202225E1,7.933951263E0,2.403032676E1
7.549543167E0,-2.021336609E1,-1.299747162E1,-4.868475952E0,2.451971646E1
7.559584167E0,-2.013298325E1,-7.603139191E0,-1.834989120E1,2.828185367E1
7.569624167E0,-1.244467117E1,-3.800596619E0,-2.249537064E1,2.598761388E1
7.579665167E0,-6.825805664E-1,-4.158951416E0,-1.569261703E1,1.624872372E1
7.589703208E0,7.007976837E0,-5.570516052E0,-4.816983032E0,1.016590940E1
7.599744208E0,1.348605560E1,-7.206164703E0,6.783593445E0,1.672781054E1
7.609785208E0,1.175490555E1,-5.900429993E0,2.015139496E1,2.406390653E1
7.619826208E0,8.164471893E0,-2.009421387E0,2.568059692E1,2.702201758E1
7.629866208E0,1.329924408E1,1.543590088E0,2.730666550E1,3.041227621E1
7.639907208E0,1.911689621E1,3.814068604E0,2.826018265E1,3.433133792E1
7.649948208E0,2.166594543E1,3.992647247E0,2.396606232E1,3.255344170E1
7.659989208E0,1.846380432E1,2.615810394E0,1.579949478E1,2.444132912E1
7.670030208E0,1.168021088E1,-2.598596191E-1,7.664361877E0,1.397273402E1
7.680071208E0,4.247567139E0,-1.878443756E0,1.530866547E0,4.890187105E0
7.690111208E0,-1.607207794E0,-7.496411133E-1,-2.355950775E0,2.948827351E0
7.700152208E0,-3.139720917E0,1.645827484E0,-4.747976532E0,5.925358782E0
7.710193208E0,-7.728428650E-1,3.146606598E0,-5.038073273E0,5.990041859E0
7.720234208E0,2.490071869E0,4.381239166E0,-2.099234619E0,5.459166652E0
7.730275208E0,4.956492920E0,5.735922089E0,2.630479889E0,8.024154081E0
7.740316208E0,6.151308289E0,6.664590912E0,7.056326294E0,1.149117516E1
7.750356208E0,6.360722809E0,7.522756348E0,1.027223877E1,1.423269290E1
7.760397208E0,6.250252533E0,8.444689178E0,1.246981888E1,1.630566818E1
7.770438208E0,6.146667938E0,9.146130524E0,1.468670883E1,1.836117226E1
7.780479208E0,4.898114319E0,8.741821289E0,1.800186493E1,2.060286641E1
7.790520208E0,3.552861786E0,7.932154999E0,1.517753815E1,1.748998496E1
7.800560208E0,3.233276367E0,7.319029999E0,1.180535065E1,1.426143682E1
7.810601208E0,9.963281250E-1,6.603517914E0,1.007285339E1,1.208559035E1
7.820642208E0,-4.568499756E-1,6.010900269E0,6.955436096E0,9.204223228E0
7.830683208E0,-8.756790161E-1,6.299200745E0,4.037104797E0,7.532924990E0
7.840724208E0,-1.029409332E0,6.819369049E0,2.040257263E0,7.192087840E0
7.850765208E0,-1.460063782E0,6.948550415E0,1.360221405E0,7.229408094E0
7.860805208E0,-1.980232086E0,7.087012482E0,2.037712555E0,7.635400283E0
7.870846208E0,-2.208507385E0,7.242838440E0,3.380570068E0,8.292434355E0
7.880887208E0,-1.409169617E0,7.273824005E0,5.113217010E0,9.002181006E0
7.890928208E0,2.651136932E0,7.660020905E0,1.023751099E1,1.305798907E1
7.900969208E0,1.460213470E0,8.196804657E0,1.017119888E1,1.314431880E1
7.911010208E0,1.393901367E0,7.851921844E0,1.032657578E1,1.304736774E1
7.921050208E0,1.820364532E0,7.001989288E0,1.142364441E1,1.352187977E1
7.931091208E0,1.342707825E-1,6.130651245E0,1.188782913E1,1.337622498E1
7.941132208E0,-1.735191650E0,5.265600128E0,1.162692169E1,1.288110022E1
7.951173208E0,-3.026855621E0,5.119054871E0,9.883197784E0,1.153447772E1
7.961214208E0,-2.469265137E0,4.836143188E0,8.420888672E0,1.001982621E1
7.971255208E0,-1.919907532E0,4.958289185E0,7.190148010E0,8.942533476E0
7.981295208E0,-1.491947479E0,5.188660126E0,6.621630249E0,8.543657784E0
7.991336208E0,-6.936575317E-1,5.319338379E0,6.385720825E0,8.339901200E0
8.001377208E0,-2.769241333E-2,5.411396942E0,6.392905884E0,8.375752466E0
8.011418208E0,4.584965515E-1,5.382207642E0,6.855144653E0,8.727622036E0
8.021459208E0,9.319619751E-1,5.439688110E0,8.241860962E0,9.919023741E0
8.031499208E0,1.266366577E0,5.473068695E0,9.510772247E0,1.104594740E1
8.041540208E0,7.753875732E-1,5.073100433E0,9.674980774E0,1.095184125E1
8.051581208E0,1.586700439E-2,4.637356567E0,9.752669220E0,1.079906869E1
8.061622208E0,-4.528083801E-1,4.698579254E0,9.632768555E0,1.072715771E1
8.071663208E0,1.037342834E-1,5.007686462E0,9.542206879E0,1.077689179E1
8.081704208E0,7.042854309E-1,5.128036194E0,9.001231842E0,1.038339770E1
8.091744208E0,1.300944672E0,5.383854218E0,8.346194000E0,1.001685068E1
8.101785208E0,2.036065979E0,5.625601501E0,7.642357635E0,9.705595662E0
8.111826208E0,2.819536743E0,5.953419800E0,7.225324860E0,9.777439035E0
8.121867208E0,3.293900299E0,6.192921753E0,7.128925323E0,1.000118169E1
8.131908208E0,3.269201660E0,6.315367126E0,7.161258087E0,1.009233168E1
8.141948208E0,2.929408264E0,6.317762146E0,7.457791443E0,1.020363683E1
8.151989208E0,2.670596466E0,6.210135956E0,7.837252350E0,1.034989848E1
8.162030208E0,2.484982452E0,6.157595215E0,8.022566986E0,1.041406250E1
8.172071208E0,2.201771393E0,6.227200470E0,7.989934845E0,1.036652699E1
8.182112208E0,1.846709747E0,6.334377594E0,7.836803284E0,1.024451864E1
8.192153208E0,1.548080750E0,6.196364594E0,7.628586273E0,9.949211864E0
8.202193208E0,1.527274017E0,5.959557037E0,7.588020630E0,9.768671511E0
8.212234208E0,1.434317322E0,5.799090729E0,7.734266510E0,9.772696553E0
8.222275208E0,1.209335175E0,5.556445312E0,7.866291962E0,9.706447615E0
8.232316208E0,1.004261627E0,5.289700012E0,8.012687531E0,9.653632948E0
8.242357208E0,9.199868774E-1,5.207969971E0,8.124205627E0,9.693917895E0
8.252398208E0,7.821235657E-1,5.191953278E0,8.071066132E0,9.628613847E0
8.262438208E0,7.509883118E-1,5.266049194E0,8.021219788E0,9.624719447E0
8.272479208E0,8.373587036E-1,5.387297058E0,7.952961731E0,9.642289121E0
8.282520208E0,9.256750488E-1,5.505551147E0,7.957602081E0,9.720668630E0
8.292561208E0,9.840536499E-1,5.647605743E0,8.059839478E0,9.890643287E0
8.302602208E0,1.099463654E0,5.768254852E0,8.014334106E0,9.935347781E0
8.312642208E0,1.124910736E0,5.755082245E0,7.736960907E0,9.708087344E0
8.322683208E0,1.180295563E0,5.642516327E0,7.515122223E0,9.471438652E0
8.332724208E0,1.262774048E0,5.616171112E0,7.660769348E0,9.582450796E0
8.342765208E0,1.329984283E0,5.632786560E0,7.984246674E0,9.861305064E0
8.352806208E0,1.298399963E0,5.550008698E0,8.207133179E0,9.992270714E0
8.362847208E0,1.108894043E0,5.467829590E0,8.236322479E0,9.948055810E0
8.372887208E0,9.258247375E-1,5.453908539E0,8.222251740E0,9.909979488E0
8.382928208E0,1.028062134E0,5.461093597E0,8.104297028E0,9.826499140E0
8.392969208E0,1.184037781E0,5.485792236E0,8.043673096E0,9.807983422E0
8.403010208E0,1.355730743E0,5.570366364E0,8.169710999E0,9.980539318E0
8.413051208E0,1.548380127E0,5.635181580E0,8.150550842E0,1.002916903E1
8.423091208E0,1.608405304E0,5.583389282E0,7.927664337E0,9.828991064E0
8.433132208E0,1.612746277E0,5.491929474E0,7.713160400E0,9.604950977E0
8.443173208E0,1.739233246E0,5.442831573E0,7.690557404E0,9.580919632E0
8.453214208E0,1.879940643E0,5.370232544E0,7.876321106E0,9.716481285E0
8.463255208E0,1.889969788E0,5.332211609E0,8.123008118E0,9.898875053E0
8.473296208E0,1.844763794E0,5.307063904E0,8.242759094E0,9.975527967E0
8.483336208E0,1.863923950E0,5.311404877E0,8.282725983E0,1.001442879E1
8.493377208E0,1.789378967E0,5.346132660E0,8.268655243E0,1.000768060E1
8.503418208E0,1.790426788E0,5.359604645E0,8.298293610E0,1.003955511E1
8.513459208E0,1.699565735E0,5.415887604E0,8.335416412E0,1.008461844E1
8.523500208E0,1.546583862E0,5.397026825E0,8.282725983E0,1.000616659E1
8.533541208E0,1.524579620E0,5.311404877E0,8.216114502E0,9.901510102E0
8.543581208E0,1.428329773E0,5.267097015E0,8.159382477E0,9.816209009E0
8.553622208E0,1.309027863E0,5.266049194E0,8.092172241E0,9.743104210E0
8.563663208E0,1.295106812E0,5.275030518E0,7.993976440E0,9.664724929E0
8.573704208E0,1.369651794E0,5.263654175E0,8.007448425E0,9.679939648E0
8.583745208E0,1.394350433E0,5.232668610E0,8.112679596E0,9.754004518E0
8.593785417E0,1.338666229E0,5.164111176E0,8.210725708E0,9.791633580E0
8.603826417E0,1.284628601E0,5.127587128E0,8.249944153E0,9.798163038E0
8.613867417E0,1.179996185E0,5.096152496E0,8.366102600E0,9.866855324E0
8.623908417E0,1.144669647E0,5.026846619E0,8.398435364E0,9.854601569E0
8.633949417E0,1.186881866E0,5.028193817E0,8.448880463E0,9.903282420E0
8.643990417E0,1.268013153E0,5.081932068E0,8.497828674E0,9.982333549E0
8.654030417E0,1.238674164E0,4.988675995E0,8.406368866E0,9.853336459E0
8.664071417E0,1.150507507E0,4.913681946E0,8.293952637E0,9.708634720E0
8.674112417E0,1.109492798E0,4.888683929E0,8.262068939E0,9.663953021E0
8.684153417E0,1.099313965E0,4.919819183E0,8.398435364E0,9.795245201E0
8.694194417E0,1.083147583E0,4.947511597E0,8.481662292E0,9.878748652E0
8.704234417E0,1.064286804E0,4.913981323E0,8.470136261E0,9.850031834E0
8.714275417E0,9.925859070E-1,4.920867004E0,8.384214935E0,9.772165519E0
8.724316417E0,9.946815491E-1,4.994813232E0,8.319250031E0,9.754356549E0
8.734357417E0,9.827064514E-1,5.005890198E0,8.278085632E0,9.723751867E0
8.744398417E0,9.349557495E-1,5.024750977E0,8.333171082E0,9.775684370E0
8.754439417E0,9.318122864E-1,5.039270782E0,8.358917542E0,9.804796103E0
8.764479417E0,1.033001862E0,5.001698914E0,8.322393494E0,9.764543939E0
8.774520417E0,1.177451477E0,4.990621948E0,8.308023376E0,9.762988878E0
8.784561417E0,1.209484863E0,5.002447357E0,8.402626648E0,9.853500281E0
8.794602417E0,1.192420349E0,4.953349457E0,8.478967896E0,9.891937813E0
8.804643417E0,1.128652954E0,4.933141479E0,8.485404510E0,9.879870042E0
8.814683417E0,1.058149567E0,4.885540466E0,8.384813690E0,9.761828045E0
8.824724417E0,1.043031006E0,4.849315796E0,8.348289642E0,9.710701175E0
8.834765417E0,1.096020813E0,4.843028870E0,8.401279449E0,9.758979795E0
8.844806417E0,1.103355560E0,4.832101593E0,8.536897430E0,9.871434396E0
8.854847417E0,1.044078827E0,4.789739685E0,8.718918915E0,1.000256237E1
8.864888417E0,1.093625793E0,4.769382019E0,8.762927399E0,1.003652922E1
8.874928417E0,1.114282837E0,4.685406647E0,8.690328369E0,9.935616179E0
8.884969417E0,1.076261902E0,4.611011353E0,8.638236694E0,9.850832379E0
8.895010417E0,1.065334625E0,4.581522675E0,8.670868835E0,9.864545314E0
8.905051417E0,1.054107971E0,4.637955322E0,8.679550781E0,9.897291294E0
8.915092417E0,1.047821045E0,4.678820343E0,8.695268097E0,9.929601000E0
8.925133417E0,1.051712952E0,4.701722717E0,8.657396851E0,9.907715018E0
8.935173417E0,1.061293030E0,4.770878906E0,8.547824707E0,9.846468182E0
8.945214417E0,1.059796143E0,4.797373810E0,8.399632874E0,9.730970956E0
8.955255417E0,1.061742096E0,4.841531982E0,8.435258789E0,9.783727258E0
8.965296417E0,1.080453186E0,4.880301361E0,8.519533539E0,9.877609639E0
8.975337417E0,9.981243896E-1,4.888983307E0,8.586893463E0,9.931422326E0
8.985377417E0,9.684860229E-1,4.864883423E0,8.603359222E0,9.930903574E0
8.995418417E0,1.030606842E0,4.804558868E0,8.548423462E0,9.860095338E0
9.005459417E0,1.130598907E0,4.788542175E0,8.453820190E0,9.781383638E0
9.015500417E0,1.209484863E0,4.752317505E0,8.333021393E0,9.668847958E0
9.025541417E0,1.213676147E0,4.712649994E0,8.268655243E0,9.594411878E0
9.035581417E0,1.171014862E0,4.724026337E0,8.308472443E0,9.629040189E0
9.045622417E0,1.107097778E0,4.723128204E0,8.377179565E0,9.680430930E0
9.055663417E0,1.062939606E0,4.708758087E0,8.411757660E0,9.698448858E0
9.065704417E0,9.907896423E-1,4.716242523E0,8.400081940E0,9.684316406E0
9.075745417E0,9.698332214E-1,4.690346375E0,8.406668243E0,9.675329273E0
9.085786417E0,9.026229858E-1,4.661755829E0,8.447982330E0,9.690980400E0
9.095826417E0,9.398954773E-1,4.743036804E0,8.540040894E0,9.813872839E0
9.105867417E0,9.785151672E-1,4.814288635E0,8.543034668E0,9.854862167E0
9.115908417E0,1.060394897E0,4.714296570E0,8.408763885E0,9.698264771E0
9.125949417E0,1.115180969E0,4.673431549E0,8.355774078E0,9.638648841E0
9.135990417E0,1.115180969E0,4.737947388E0,8.453670502E0,9.754810044E0
9.146031417E0,1.081201630E0,4.774920502E0,8.500672760E0,9.809704386E0
9.156071417E0,1.073118439E0,4.724924469E0,8.454269257E0,9.744288742E0
9.166112417E0,1.084195404E0,4.686005402E0,8.504265289E0,9.770192138E0
9.176153417E0,1.101858673E0,4.679868164E0,8.563991089E0,9.821262747E0
9.186194417E0,1.103056183E0,4.657115479E0,8.501870270E0,9.756395626E0
9.196235417E0,1.079105988E0,4.644841003E0,8.423732758E0,9.679787769E0
9.206275417E0,9.945318604E-1,4.739893341E0,8.471184082E0,9.757901529E0
9.216316417E0,9.852511597E-1,4.854105835E0,8.631201324E0,9.951416965E0
9.226357417E0,1.038690033E0,4.781506805E0,8.730594635E0,1.000824495E1
9.236398417E0,1.038390656E0,4.578079834E0,8.720266113E0,9.903540337E0
9.246439417E0,1.004411316E0,4.488715668E0,8.738977203E0,9.875582666E0
9.256480417E0,9.830058289E-1,4.580624542E0,8.735085297E0,9.912120701E0
9.266520417E0,1.010249176E0,4.668042755E0,8.627459106E0,9.861251300E0
9.276561417E0,1.053658905E0,4.686155090E0,8.488398285E0,9.753109866E0
9.286602417E0,1.130149841E0,4.662953339E0,8.458759918E0,9.724761789E0
9.296643417E0,1.212328949E0,4.617897034E0,8.570128326E0,9.810291230E0
9.306684417E0,1.220711517E0,4.563859406E0,8.682095490E0,9.884216275E0
9.316724417E0,1.107995911E0,4.565955048E0,8.724457397E0,9.909175410E0
9.326765417E0,1.002615051E0,4.593048706E0,8.642427979E0,9.838338006E0
9.336806417E0,9.334588623E-1,4.611161041E0,8.381221161E0,9.611400509E0
9.346847417E0,9.839039612E-1,4.580624542E0,7.988437958E0,9.260957251E0
9.356888417E0,1.192570038E0,4.755460968E0,7.948171692E0,9.338632960E0
9.366929417E0,8.020321655E-1,4.830904083E0,8.211923218E0,9.561201430E0
9.376969417E0,1.366957397E0,4.617747345E0,9.357490997E0,1.052401068E1
9.387010417E0,1.888023834E0,4.542453918E0,9.010961609E0,1.026625300E1
9.397051417E0,1.322499847E0,4.504582672E0,8.876990204E0,1.004197321E1
9.407092417E0,3.281176758E-1,4.399800568E0,8.512647858E0,9.588069659E0
9.417133417E0,-1.173559570E-1,4.102668457E0,8.184081116E0,9.155590893E0
9.427174417E0,-4.222718811E-1,3.675157471E0,7.962841187E0,8.780201350E0
9.437214417E0,-8.890013123E-1,3.419040070E0,8.020920410E0,8.764435096E0
9.447255417E0,-1.362915802E0,3.116369476E0,8.290360107E0,8.960991514E0
9.457296417E0,-1.723665619E0,2.821033630E0,8.584947510E0,9.199487902E0
9.467337417E0,-1.856738892E0,2.609074402E0,8.879534912E0,9.439326713E0
9.477378417E0,-1.799258423E0,2.583028564E0,9.170230408E0,9.695488289E0
9.487418417E0,-1.714384918E0,2.655477905E0,9.449250183E0,9.963885165E0
9.497459417E0,-1.715133362E0,2.639760590E0,9.586664429E0,1.009029996E1
9.507500417E0,-1.470691681E0,2.574945374E0,9.719438324E0,1.016173012E1
9.517541417E0,-1.021924896E0,2.516117706E0,1.010294083E1,1.046157694E1
9.527582417E0,-1.216520233E0,2.604434052E0,1.000863693E1,1.041325172E1
9.537622417E0,-1.268462219E0,2.736160126E0,9.695188751E0,1.015343555E1
9.547663417E0,-1.483115845E0,2.578687592E0,9.756710815E0,1.020013080E1
9.557704417E0,-2.383044434E0,2.436932373E0,9.991123352E0,1.055651865E1
9.567745417E0,-3.115920410E0,2.228565674E0,9.834848328E0,1.055460594E1
9.577786417E0,-3.805686035E0,1.985171814E0,9.550140381E0,1.047040279E1
9.587827417E0,-4.170477448E0,1.710193634E0,9.285490723E0,1.032172381E1
9.597867792E0,-4.167184296E0,1.558409271E0,9.094338226E0,1.012428033E1
9.607908792E0,-4.106560364E0,1.489103394E0,8.990304565E0,9.995341071E0
9.617949792E0,-4.028871918E0,1.422791290E0,9.033564606E0,9.993069272E0
9.627990792E0,-3.932921448E0,1.412762146E0,9.111851807E0,1.002445068E1
9.638031792E0,-3.841910706E0,1.420995026E0,9.140292664E0,1.001620960E1
9.648072792E0,-3.788322144E0,1.461860046E0,9.093140717E0,9.958595662E0
9.658112792E0,-3.727698212E0,1.562151489E0,8.956025848E0,9.825805322E0
9.668153792E0,-3.579506378E0,1.711840210E0,8.831784210E0,9.682131746E0
9.678194792E0,-3.464096375E0,1.873354340E0,8.795409851E0,9.636838414E0
9.688235792E0,-3.391347656E0,2.008223877E0,8.783285065E0,9.627060745E0
9.698276792E0,-3.250490570E0,2.074535980E0,8.889414368E0,9.689740775E0
9.708316792E0,-3.169808350E0,2.032623138E0,9.085506592E0,9.834921038E0
9.718357792E0,-3.110232239E0,2.005679169E0,9.289083252E0,9.999168024E0
9.728398792E0,-3.102747803E0,2.087409210E0,9.440268860E0,1.015396461E1
9.738439792E0,-3.110232239E0,2.172282715E0,9.394613800E0,1.013168916E1
9.748480792E0,-3.190914459E0,2.237846375E0,9.307045898E0,1.009014345E1
9.758521792E0,-3.221750336E0,2.310595093E0,9.291178894E0,1.010170927E1
9.768561792E0,-3.221600647E0,2.389481049E0,9.179062042E0,1.001716079E1
9.778602792E0,-3.185974731E0,2.352657623E0,8.967551880E0,9.803184156E0
9.788643792E0,-3.101250916E0,2.305355988E0,8.790919189E0,9.602743549E0
9.798684792E0,-3.020119629E0,2.303859100E0,8.682993622E0,9.477513786E0
9.808725792E0,-2.997666321E0,2.325563965E0,8.671168213E0,9.464851256E0
9.818765792E0,-3.005001068E0,2.388433228E0,8.656798096E0,9.469677818E0
9.828806792E0,-3.007396088E0,2.433639221E0,8.592581635E0,9.423348143E0
9.838847792E0,-2.953208771E0,2.438578949E0,8.484207001E0,9.308591610E0
9.848888792E0,-2.901865540E0,2.355202332E0,8.376281433E0,9.172234857E0
9.858929792E0,-2.909649353E0,2.252665558E0,8.465346222E0,9.230528053E0
9.868969792E0,-2.946173401E0,2.223027191E0,8.689430237E0,9.440761910E0
9.879010792E0,-2.907254333E0,2.182012482E0,8.853788452E0,9.570939149E0
9.889051792E0,-2.851570129E0,2.228415985E0,8.959917755E0,9.663199066E0
9.899092792E0,-2.775977325E0,2.333647156E0,9.100026398E0,9.796042037E0
9.909133792E0,-2.612068176E0,2.446063385E0,9.260941772E0,9.928301403E0
9.919174792E0,-2.311044159E0,2.541265411E0,9.294921112E0,9.909314481E0
9.929214792E0,-1.537153473E0,2.699037323E0,9.219477997E0,9.728639052E0
9.939255792E0,-1.542991333E0,2.870430908E0,9.102571106E0,9.668350252E0
9.949296792E0,-1.700763245E0,3.009641418E0,8.902586975E0,9.550214235E0
9.959337792E0,-1.318757629E0,3.079396362E0,8.941056976E0,9.547999974E0
9.969378792E0,-9.798623657E-1,3.058889008E0,9.308243408E0,9.846843533E0
9.979418792E0,-5.858816528E-1,2.948269043E0,9.796677704E0,1.024746026E1
9.989459792E0,-1.678010559E-1,2.975961456E0,1.012479538E1,1.055442965E1
9.999500792E0,-1.396595764E-1,3.050656128E0,1.014650024E1,1.059610659E1
1.000954179E1,-2.917433167E-1,3.056044922E0,9.813442841E0,1.028242117E1
1.001958279E1,-4.564009094E-1,3.048560486E0,9.388775940E0,9.881858959E0
1.002962379E1,-7.141648865E-1,3.064876556E0,9.085057526E0,9.614664323E0
1.003966379E1,-8.848100281E-1,3.119962006E0,9.089548187E0,9.650748051E0
1.004970479E1,-9.798623657E-1,3.119363251E0,9.142837372E0,9.709893540E0
1.005974579E1,-9.586065674E-1,3.111729126E0,9.242679749E0,9.799434353E0
1.006978679E1,-9.376501465E-1,3.042572937E0,9.334738312E0,9.862746941E0
1.007982779E1,-9.632469177E-1,2.934198303E0,9.349707184E0,9.846541968E0
1.008986779E1,-9.461824036E-1,2.911295929E0,9.283993835E0,9.775655818E0
1.009990879E1,-8.640032959E-1,2.724484406E0,9.181756439E0,9.616338611E0
1.010994979E1,-9.434880066E-1,2.689157867E0,8.998687134E0,9.439179508E0
1.011999079E1,-8.607101440E-1,2.828069000E0,9.033564606E0,9.504950589E0
1.013003179E1,-8.051756287E-1,2.963686981E0,9.087003479E0,9.591943523E0
1.014007279E1,-7.970924377E-1,2.997217255E0,9.147477722E0,9.658934533E0
1.015011279E1,-8.189469910E-1,3.011138306E0,9.231004028E0,9.744181004E0
1.016015379E1,-7.890092468E-1,3.019221497E0,9.228908386E0,9.742226852E0
1.017019479E1,-8.334667969E-1,2.969824219E0,9.228609009E0,9.730454616E0
1.018023579E1,-9.517208862E-1,2.891087952E0,9.278904419E0,9.765358642E0
1.019027679E1,-1.032852173E0,2.852917328E0,9.422156525E0,9.898633970E0
1.020031679E1,-1.106499023E0,2.818788300E0,9.567055206E0,1.003486188E1
1.021035779E1,-1.094523926E0,2.763553162E0,9.553882599E0,1.000559251E1
1.022039879E1,-1.033750305E0,2.741399231E0,9.468859406E0,9.911771178E0
1.023043979E1,-9.873468018E-1,2.770738220E0,9.462123413E0,9.908764982E0
1.024048079E1,-1.008452911E0,2.875520325E0,9.544452209E0,1.001908990E1
1.025052179E1,-1.033899994E0,2.913840637E0,9.542655945E0,1.003103678E1
1.026056179E1,-1.005309448E0,2.924318848E0,9.516161041E0,1.000597865E1
1.027060279E1,-9.388476562E-1,2.937192078E0,9.575737152E0,1.005998381E1
1.028064379E1,-1.037043457E0,3.071462860E0,9.593849487E0,1.012676114E1
1.029068479E1,-7.014413452E-1,2.899320831E0,9.673184509E0,1.012267651E1
1.030072579E1,-8.113128662E-1,2.853216705E0,9.697583771E0,1.014111459E1
1.031076579E1,-9.346563721E-1,3.032543793E0,9.785001984E0,1.028669861E1
1.032080679E1,-8.261320496E-1,3.065175934E0,9.984686737E0,1.047720225E1
1.033084779E1,-7.054829407E-1,2.952160950E0,1.006012985E1,1.050805277E1
1.034088879E1,-5.384303284E-1,3.104544067E0,9.958790588E0,1.044536314E1
1.035092979E1,-2.915936279E-1,3.392994232E0,9.978549500E0,1.054366572E1
1.036096979E1,-2.160008240E-1,3.449875946E0,9.865085449E0,1.045314361E1
1.037101079E1,-1.636097717E-1,3.525169373E0,9.486522675E0,1.012164511E1
1.038105179E1,-8.442443848E-2,3.568130035E0,9.093889160E0,9.769211815E0
1.039109279E1,-2.395019531E-3,3.674109650E0,8.682843933E0,9.428195279E0
1.040113379E1,2.139051819E-1,3.789070587E0,8.417745209E0,9.233701627E0
1.041117479E1,4.052073669E-1,3.888014832E0,8.375832367E0,9.243128268E0
1.042121479E1,6.785389709E-1,4.024830322E0,8.608448639E0,9.527069971E0
1.043125579E1,9.800120544E-1,4.126768341E0,8.818910980E0,9.785899624E0
1.044129679E1,1.190474396E0,4.162543945E0,8.840316467E0,9.843535779E0
1.045133779E1,1.288819885E0,4.290677490E0,8.571176147E0,9.671402720E0
1.046137879E1,1.119971008E0,4.352947998E0,8.242908783E0,9.388718578E0
1.047141879E1,1.028211823E0,4.307891693E0,8.045768738E0,9.184200835E0
1.048145979E1,1.049766998E0,4.288282471E0,8.175848236E0,9.291709836E0
1.049150079E1,1.146016846E0,4.289629669E0,7.973918152E0,9.126754516E0
1.050154179E1,1.240171051E0,4.407135315E0,7.955506439E0,9.178831550E0
1.051158279E1,1.250649261E0,4.517605591E0,7.863896942E0,9.154985471E0
1.052162379E1,1.187031555E0,4.539609833E0,7.761809235E0,9.069883348E0
1.053166379E1,1.247356110E0,4.625980225E0,7.718848572E0,9.084944335E0
1.054170479E1,1.257834320E0,4.716691589E0,7.667205963E0,9.089299973E0
1.055174579E1,1.216071167E0,4.819078674E0,7.610473938E0,9.089645863E0
1.056178679E1,1.360371094E0,4.955145721E0,7.652835846E0,9.217915986E0
1.057182779E1,1.719923401E0,5.115761719E0,7.796836395E0,9.482605773E0
1.058186779E1,2.296374664E0,5.182073822E0,8.049960022E0,9.845256830E0
1.059190854E1,2.693199463E0,5.227728882E0,8.398285675E0,1.025249603E1
1.060194954E1,2.762655029E0,5.363945618E0,8.566236420E0,1.047781379E1
1.061199054E1,2.715054016E0,5.470374298E0,8.611592102E0,1.055727388E1
1.062203154E1,2.740351410E0,5.425018616E0,8.444838867E0,1.040459785E1
1.063207154E1,2.856210480E0,5.298681335E0,8.228538666E0,1.019523471E1
1.064211254E1,2.827470245E0,5.179379425E0,8.045169983E0,9.977240063E0
1.065215354E1,2.641856232E0,5.148693237E0,7.970475311E0,9.849716904E0
1.066219454E1,2.616708527E0,5.324128418E0,8.101902008E0,1.004162950E1
1.067223554E1,2.588267670E0,5.369184723E0,8.123157806E0,1.007536435E1
1.068227654E1,2.556683350E0,5.270988922E0,7.987390137E0,9.905470971E0
1.069231654E1,2.720442810E0,5.233716431E0,8.011490021E0,9.948696855E0
1.070235754E1,2.843486938E0,5.170697479E0,8.057294769E0,9.987068108E0
1.071239854E1,2.784060516E0,5.123844910E0,8.079299011E0,9.963927545E0
1.072243954E1,2.772235107E0,5.115013275E0,7.949369202E0,9.850945082E0
1.073248054E1,2.873873749E0,5.139861603E0,7.766449585E0,9.746541272E0
1.074252054E1,3.002007294E0,5.246889038E0,7.747289429E0,9.826616196E0
1.075256154E1,2.824626160E0,5.281167755E0,7.477700043E0,9.580461561E0
1.076260254E1,2.863844604E0,5.458848267E0,5.538033600E0,8.286763329E0
1.077264354E1,3.485950928E0,5.776338043E0,6.162684631E0,9.137648326E0
1.078268454E1,3.414549408E0,5.474565582E0,7.829318848E0,1.014535606E1
1.079272554E1,3.185076599E0,5.616470490E0,7.768096161E0,1.010112725E1
1.080276554E1,3.035238190E0,5.661227417E0,8.078101501E0,1.032075049E1
1.081280654E1,2.921624451E0,5.540727997E0,8.083939362E0,1.022671168E1
1.082284754E1,2.972668304E0,5.474266205E0,7.889643402E0,1.005240371E1
1.083288854E1,3.305426331E0,5.289700012E0,7.597301331E0,9.829840129E0
1.084292954E1,3.265758820E0,5.040767670E0,7.264243927E0,9.425696749E0
1.085296954E1,2.804118805E0,5.250032501E0,7.094496918E0,9.260551282E0