"Time (s)","Acceleration x (m/s^2)","Acceleration y (m/s^2)","Acceleration z (m/s^2)","Absolute acceleration (m/s^2)"
1.714874990E-3,5.229674835E0,4.544998627E0,9.775721283E0,1.198212160E1
1.175587496E-2,5.422473907E0,4.409380646E0,9.240434418E0,1.158583140E1
2.179687499E-2,5.462889862E0,4.263284454E0,8.030799866E0,1.060719126E1
3.183787497E-2,5.463638306E0,4.420906677E0,7.853269043E0,1.053895602E1
4.187887500E-2,5.162015533E0,4.619842987E0,7.959697723E0,1.055206811E1
5.191987497E-2,4.735552368E0,4.477039948E0,8.227939911E0,1.049611062E1
6.196087500E-2,4.295916595E0,3.942651215E0,8.672066345E0,1.045007812E1
7.200187497E-2,3.915707245E0,3.257975006E0,8.942254486E0,1.029131088E1
8.204287500E-2,3.385509796E0,2.949765930E0,8.700058136E0,9.790495758E0
9.208387497E-2,2.745141449E0,2.744842072E0,8.469387817E0,9.316678033E0
1.021248750E-1,2.042502594E0,2.840942230E0,8.688382416E0,9.366469912E0
1.121658750E-1,1.044976959E0,3.019670563E0,9.002129974E0,9.552420176E0
1.222068750E-1,2.375559998E-1,3.334465942E0,8.916058960E0,9.522142792E0
1.322478750E-1,2.499801636E-2,3.841461639E0,9.070388031E0,9.850349814E0
1.422888750E-1,2.447410583E-1,4.276906128E0,9.146429901E0,1.009995070E1
1.523298750E-1,7.493417358E-1,4.346960449E0,8.969048767E0,9.995069483E0
1.623718750E-1,1.462907867E0,4.289479980E0,8.370593262E0,9.518748315E0
1.724128750E-1,1.766775970E0,4.515959015E0,7.925419006E0,9.291267383E0
1.824538750E-1,1.942660217E0,4.822521515E0,7.547005920E0,9.164493485E0
1.924948750E-1,1.927242279E0,5.205574951E0,7.530989227E0,9.355643864E0
2.025358750E-1,1.934577026E0,5.769452362E0,7.899373169E0,9.971422431E0
2.125768750E-1,2.098186798E0,6.393055573E0,8.082292786E0,1.051651102E1
2.226178750E-1,2.277513885E0,6.816674652E0,8.128845978E0,1.085044975E1
2.326588750E-1,2.399510193E0,6.911427612E0,8.245154114E0,1.102306886E1
2.426998750E-1,2.611319733E0,6.346352692E0,8.400680695E0,1.084742455E1
2.527408750E-1,2.759062500E0,5.232518921E0,8.493787079E0,1.035065694E1
2.627818750E-1,3.115022278E0,3.849844208E0,8.023315430E0,9.428587100E0
2.728228750E-1,3.063679047E0,3.190315704E0,5.932463379E0,7.399889549E0
2.828638750E-1,1.188229065E0,4.011807404E0,5.163362732E0,6.645810835E0
2.929048750E-1,-7.333250427E-1,6.086343384E0,4.605622559E0,7.667665913E0
3.029458750E-1,-1.938019867E0,6.335575104E0,5.753735046E0,8.775015663E0
3.129868750E-1,-2.965632935E0,5.693709869E0,7.895331573E0,1.017593099E1
3.230278750E-1,-3.991749115E0,5.643863525E0,1.025667114E1,1.236877356E1
3.330688750E-1,-4.793182526E0,5.890550537E0,1.187241119E1,1.409352092E1
3.431098750E-1,-5.111570435E0,5.816005554E0,1.266965332E1,1.484837325E1
3.531508750E-1,-4.898713074E0,4.913831635E0,1.264525406E1,1.442378526E1
3.631918750E-1,-4.781357117E0,3.977977753E0,1.229483276E1,1.377855564E1
3.732328750E-1,-4.903203735E0,3.986510010E0,1.190878555E1,1.348157418E1
3.832738750E-1,-5.249882812E0,4.498595123E0,1.198871933E1,1.383936483E1
3.933148750E-1,-5.429509277E0,4.665348358E0,1.258762390E1,1.448079148E1
4.033558750E-1,-3.851341095E0,4.204157410E0,1.178948364E1,1.309578911E1
4.133968750E-1,-1.372795258E0,4.110601959E0,9.821226654E0,1.073490141E1
4.234378750E-1,-1.159189453E0,4.429438934E0,7.576943665E0,8.852893581E0
4.334788750E-1,-1.849254456E0,4.970863037E0,6.098468170E0,8.082112063E0
4.435198750E-1,-1.555265808E0,7.652087402E0,5.003794556E0,9.274225213E0
4.535608750E-1,5.854325867E-1,9.660910034E0,4.896168365E0,1.084658373E1
4.636018750E-1,3.308120728E0,9.036259003E0,4.356989594E0,1.056319070E1
4.736438750E-1,5.432802429E0,6.849606171E0,2.133663025E0,8.999164674E0
4.836848750E-1,7.144492950E0,7.045249329E0,7.927514648E-1,1.006517623E1
4.937258750E-1,6.190975800E0,7.438930664E0,-4.041595459E-2,9.678197364E0
5.037668750E-1,4.444258118E0,7.777975616E0,1.300196228E0,9.052007796E0
5.138078750E-1,1.736688538E0,7.441774750E0,5.143454132E0,9.211472136E0
5.238488750E-1,-5.980064392E-1,6.536607056E0,8.715775452E0,1.091098461E1
5.338898750E-1,1.435814209E0,7.841144257E0,1.007015900E1,1.284341107E1
5.439308750E-1,5.061275024E0,8.987460480E0,9.341324615E0,1.391586491E1
5.539718750E-1,5.046306152E0,7.809410248E0,9.125922546E0,1.302822154E1
5.640128750E-1,8.858578491E-1,6.280789032E0,1.263327896E1,1.413622270E1
5.740538750E-1,9.550140381E-2,6.254892883E0,1.287113434E1,1.431079679E1
5.840948750E-1,-1.198856964E0,5.694608002E0,1.169996979E1,1.306732992E1
5.941358750E-1,-8.686436462E-1,5.238506470E0,1.138756943E1,1.256476141E1
6.041768750E-1,1.452279968E0,6.059848480E0,8.488398285E0,1.053013704E1
6.142178750E-1,4.684059448E0,6.673123169E0,2.868484955E0,8.642869412E0
6.242588750E-1,8.358019409E0,6.969656525E0,-4.350103912E0,1.171989781E1
6.342998750E-1,8.769962769E0,6.713239746E0,-8.881780243E0,1.417271516E1
6.443408750E-1,5.407954102E0,7.236252136E0,-8.538244629E0,1.243024271E1
6.543818750E-1,2.418670349E0,9.052275696E0,-4.882995758E0,1.056585582E1
6.644228750E-1,1.990560608E0,1.033675461E1,-7.526348877E-1,1.055354380E1
6.744638750E-1,3.134332123E0,1.050769913E1,1.522184601E0,1.107035793E1
6.845048750E-1,4.311933289E0,9.933792572E0,9.276210022E-1,1.086892287E1
6.945458750E-1,3.529360657E0,8.885372772E0,1.231339417E0,9.639628245E0
7.045868750E-1,-4.086502075E-1,7.388784943E0,5.101990356E0,8.988406061E0
7.146278750E-1,-2.797382812E0,6.465953979E0,9.822873230E0,1.208812434E1
7.246688750E-1,-3.414250031E0,6.316714325E0,1.568378540E1,1.724932195E1
7.347098750E-1,-2.692900085E-1,5.774990845E0,1.728814911E1,1.822918363E1
7.447508750E-1,4.003873901E0,6.130351868E0,1.516616180E1,1.684116041E1
7.547918750E-1,5.409450989E0,6.780000916E0,8.602311401E0,1.221598681E1
7.648328750E-1,5.163063354E0,5.654192047E0,-3.852239227E0,8.571281000E0
7.748738750E-1,6.894063721E0,5.047653351E0,-1.526839920E1,1.749659776E1
7.849148750E-1,5.338348846E0,5.924080811E0,-1.963736389E1,2.119478149E1
7.949558750E-1,1.563648376E0,7.600295105E0,-1.641336823E1,1.815511329E1
8.049982500E-1,1.935774536E0,9.363179169E0,-9.614955597E0,1.355963563E1
8.150392500E-1,4.254901886E0,1.009440857E1,-3.704197083E0,1.156383805E1
8.250802500E-1,7.129673767E0,1.134101624E1,1.628613281E-1,1.339691834E1
8.351212500E-1,8.646319885E0,1.149908752E1,2.312690735E0,1.457176722E1
8.451622500E-1,5.661526794E0,9.192234650E0,4.683610382E0,1.176801894E1
8.552032500E-1,-8.565188599E-1,5.791606293E0,8.984466705E0,1.072366402E1
8.652442500E-1,-5.522166595E0,4.484674072E0,1.470556961E1,1.633586248E1
8.752852500E-1,-4.407135315E0,4.379143524E0,1.904504562E1,2.003281065E1
8.853262500E-1,7.267387390E-1,4.520150299E0,1.993359787E1,2.045258497E1
8.953672500E-1,5.624703369E0,5.995931396E0,1.658042084E1,1.850672409E1
9.054082500E-1,5.898783417E0,5.598657532E0,5.374872894E0,9.748326553E0
9.154492500E-1,4.805007935E0,3.865411835E0,-1.335732330E1,1.471215809E1
9.254902500E-1,8.376880188E0,2.718347168E0,-2.759885788E1,2.896995839E1
9.355312500E-1,6.726861420E0,4.264481964E0,-2.848770950E1,2.958016335E1
9.455722500E-1,1.680255890E0,6.915469208E0,-2.208926514E1,2.320738263E1
9.556132500E-1,3.414549408E0,9.078022156E0,-1.552706131E1,1.830735554E1
9.656542500E-1,6.628815308E0,9.090446320E0,-1.226609253E1,1.664435137E1
9.756952500E-1,6.762936401E0,8.400830383E0,-9.544601898E0,1.440175980E1
9.857362500E-1,4.297862549E0,7.934999084E0,-3.316203918E0,9.614210388E0
9.957772500E-1,-8.240364075E-1,5.572162628E0,3.041674805E0,6.401548092E0
1.005818250E0,-6.130351868E0,3.863016815E0,1.031819321E1,1.260829981E1
1.015859250E0,-4.086651764E0,4.043391724E0,1.577359863E1,1.678857210E1
1.025900250E0,2.632725220E0,4.345313873E0,1.698413132E1,1.772776668E1
1.035941250E0,8.450377350E0,7.093449097E0,1.498952911E1,1.861214336E1
1.045982250E0,1.085782104E1,8.962312775E0,7.802524567E0,1.609641941E1
1.056023250E0,8.134534149E0,7.502997437E0,-7.842192078E0,1.356339165E1
1.066064250E0,8.177195435E0,3.736829224E0,-2.466016891E1,2.624793989E1
1.076105250E0,1.118638779E1,3.643124084E0,-2.951337662E1,3.177179605E1
1.086146250E0,2.396815796E0,4.293970642E0,-2.541579758E1,2.588717204E1
1.096187250E0,-1.872905273E0,4.525090027E0,-2.021156982E1,2.079643644E1
1.106228250E0,1.871707764E0,5.036875763E0,-1.570653809E1,1.660026343E1
1.116269250E0,5.308411102E0,4.959636383E0,-1.177182037E1,1.383303930E1
1.126310250E0,5.723497925E0,4.454586639E0,-5.414241028E0,9.050733480E0
1.136351250E0,1.492695923E0,4.142036591E0,6.453978882E0,7.812710902E0
1.146392250E0,-2.341580658E0,4.391118622E0,1.864792145E1,1.930051546E1
1.156433250E0,-7.292834473E-1,4.212240601E0,2.539753555E1,2.575479834E1
1.166474250E0,4.553530884E0,4.061054993E0,2.518782166E1,2.591627232E1
1.176516250E0,8.279432831E0,6.577621765E0,2.040511734E1,2.298223074E1
1.186557250E0,1.101813766E1,1.087997498E1,1.359667557E1,2.060686292E1
1.196598250E0,1.139071289E1,9.102421417E0,2.377056885E0,1.477338198E1
1.206639250E0,6.745273132E0,2.681224365E0,-1.145448029E1,1.356070766E1
1.216680250E0,2.940485229E0,5.863307190E-1,-2.092633347E1,2.114004895E1
1.226721250E0,-3.265908508E0,2.706821136E0,-2.352552841E1,2.390488498E1
1.236762250E0,-7.046297150E0,2.485281830E0,-2.313334396E1,2.431005003E1
1.246803250E0,-4.311334534E0,3.323388977E0,-2.032204010E1,2.103848458E1
1.256844250E0,6.496490479E-1,5.122647400E0,-1.646935181E1,1.725986991E1
1.266885250E0,4.355193329E0,4.937033386E0,-1.274315048E1,1.434328734E1
1.276926250E0,4.440815277E0,3.354973297E0,-5.859564972E0,8.081533754E0
1.286967250E0,1.393601990E-1,3.625311127E0,8.651259613E0,9.381183024E0
1.297008250E0,-4.475692749E-2,5.894442444E0,1.897020126E1,1.986491860E1
1.307049250E0,3.921694794E0,5.109474792E0,2.324875397E1,2.412448929E1
1.317090250E0,8.372539215E0,5.973178711E0,2.095701965E1,2.334469853E1
1.327131250E0,1.083342178E1,1.005339386E1,1.496378265E1,2.103208375E1
1.337172250E0,8.895102539E0,1.039827667E1,3.742218018E0,1.418630335E1
1.347213250E0,4.567751312E0,5.410947876E0,-1.078941330E1,1.290558593E1
1.357254250E0,3.316353607E0,2.155517578E0,-1.975771362E1,2.014973213E1
1.367295250E0,-3.611390076E0,2.927612000E0,-2.050001999E1,2.102055827E1
1.377336250E0,-9.653575287E0,2.162403259E0,-1.839315125E1,2.088481545E1
1.387377250E0,-7.582182770E0,2.160756683E0,-1.520208710E1,1.712488882E1
1.397418250E0,-2.551893311E0,3.230132904E0,-1.170685547E1,1.240952791E1
1.407459250E0,9.752220154E-1,2.857258301E0,-7.602241058E0,8.179795357E0
1.417500250E0,2.017354889E0,2.738405457E0,2.020797729E-2,3.401322324E0
1.427541250E0,1.413061523E-1,3.452121277E0,1.205577988E1,1.254108995E1
1.437582250E0,-2.155517578E-1,4.291126556E0,2.267320084E1,2.307670396E1
1.447623250E0,1.546134796E0,3.714675293E0,2.641631699E1,2.672098704E1
1.457664250E0,2.794987793E0,4.210294647E0,2.406725189E1,2.459209530E1
1.467705250E0,2.252066803E0,5.896538086E0,1.803524551E1,1.910787919E1
1.477746250E0,5.896238708E-1,7.934999084E0,9.927655334E0,1.272282230E1
1.487787250E0,-3.039279785E0,5.859115906E0,-1.165177002E0,6.702544163E0
1.497828250E0,-3.964805145E0,1.732048187E0,-1.042746597E1,1.128945160E1
1.507869250E0,-5.876779175E0,1.275347900E0,-1.306198746E1,1.437979701E1
1.517910250E0,-1.406400375E1,6.122268677E-1,-1.166015259E1,1.827922815E1
1.527951250E0,-1.601654343E1,-5.806425476E-1,-9.611512756E0,1.868817772E1
1.537992250E0,-1.102517303E1,3.049159241E-1,-7.498806152E0,1.333714767E1
1.548033250E0,-2.699037323E0,1.433119812E0,-5.682632904E0,6.452205173E0
1.558074250E0,6.091732178E0,2.096540222E0,-1.844314728E0,6.701207253E0
1.568115250E0,9.894873505E0,1.423090668E0,6.854695587E0,1.212107917E1
1.578157250E0,8.014932861E0,1.013991394E0,1.982163071E1,2.140477450E1
1.588198250E0,5.025499420E0,5.614823914E-1,2.931818253E1,2.975107954E1
1.598239250E0,4.187242584E0,-3.646417236E-1,3.076163086E1,3.104744590E1
1.608280250E0,3.509751434E0,1.052910461E0,2.758164368E1,2.782398324E1
1.618321250E0,2.467917938E0,3.962859192E0,2.172986252E1,2.222570127E1
1.628362250E0,1.022224274E0,4.569846954E0,1.141840530E1,1.234132989E1
1.638403250E0,3.522474976E0,7.833210754E-1,2.510429535E0,4.395870598E0
1.648444250E0,-4.155358887E-1,-2.142794037E0,8.532257080E-1,2.343550825E0
1.658485250E0,-1.881422562E1,-5.221741333E0,2.209854584E0,1.965006680E1
1.668526250E0,-2.624701904E1,-8.182434540E0,2.604583740E0,2.761597545E1
1.678567250E0,-2.452544907E1,-1.061143341E1,5.062023468E0,2.719787221E1
1.688608250E0,-1.634017044E1,-1.222986786E1,1.093955109E1,2.315695610E1
1.698649250E0,-2.904559937E0,-1.067505112E1,1.803659271E1,2.115920276E1
1.708690250E0,8.980125732E0,-4.862189026E0,2.797158279E1,2.977739049E1
1.718731250E0,1.703607330E1,2.105371857E0,4.021552139E1,4.372583384E1
1.728772250E0,1.713262253E1,4.540657654E0,4.688609985E1,5.012435223E1
1.738813250E0,6.541397095E0,1.837728424E0,4.239738419E1,4.293838967E1
1.748854250E0,-3.943998413E0,5.634283447E-1,3.563669312E1,3.585870147E1
1.758895250E0,-6.558611298E0,6.508465576E-1,3.103571091E1,3.172781642E1
1.768936250E0,-5.099595337E0,6.294410706E-1,2.465118759E1,2.518100710E1
1.778977250E0,-3.664080505E0,2.429747314E0,1.438807983E1,1.504479974E1
1.789018250E0,-3.449127502E0,5.858666840E0,3.050805817E0,7.451702745E0
1.799059250E0,-9.959988098E0,4.997956696E0,-4.253854065E0,1.192795911E1
1.809100042E0,-2.133184021E1,3.441792755E0,-8.203241272E0,2.311247523E1
1.819141042E0,-2.405363022E1,3.582200775E0,-1.163231049E1,2.695774353E1
1.829182042E0,-1.690734100E1,3.741768951E0,-9.604178009E0,1.980149615E1
1.839223042E0,-4.035308533E0,4.771327972E0,-2.574795685E0,6.758613644E0
1.849264042E0,9.178163910E0,7.680528259E0,6.199807434E0,1.347838341E1
1.859305042E0,1.579874634E1,9.501192169E0,1.577509552E1,2.426369051E1
1.869346042E0,1.512335083E1,1.168634811E1,2.499921387E1,3.146819293E1
1.879387042E0,9.462123413E0,1.104747665E1,3.279739746E1,3.587823574E1
1.889428042E0,-1.671573944E0,6.176006927E0,3.770075089E1,3.823982006E1
1.899469042E0,-1.139969421E1,4.295018463E0,3.924748444E1,4.109458902E1
1.909510042E0,-1.064137115E1,2.378104706E0,3.578413651E1,3.740853629E1
1.919551042E0,-6.435417480E0,-6.152206421E-2,2.839430374E1,2.911451301E1
1.929592042E0,-4.699627075E0,-1.752256165E0,1.851230347E1,1.917973608E1
1.939633042E0,-3.046614532E0,-2.755170593E0,2.800376587E0,4.971411684E0
1.949674042E0,-4.627327423E0,-4.972659302E-1,-1.871588013E1,1.928583940E1
1.959715042E0,-1.362915802E0,1.272503815E0,-3.660233505E1,3.664979859E1
1.969756042E0,-4.481081543E0,1.729204102E0,-3.823094833E1,3.853148906E1
1.979797042E0,-1.337813004E1,1.213227081E0,-2.944646576E1,3.236573232E1
1.989838042E0,-1.310390030E1,2.654729462E0,-1.897603912E1,2.321313965E1
1.999879042E0,-8.190068665E0,4.597838745E0,-1.017539017E1,1.384759585E1
2.009920042E0,-3.526666260E0,2.661615143E0,-2.300116882E0,4.981175338E0
2.019961042E0,-1.433419189E0,-3.233276367E-2,5.536686401E0,5.719320964E0
2.030002042E0,-4.986430664E0,3.501219177E-1,1.492231888E1,1.573730208E1
2.040043042E0,-3.156935120E0,1.388662262E0,1.762719406E1,1.796141956E1
2.050085042E0,-5.001848602E0,5.794450378E-1,2.716520966E1,2.762793625E1
2.060126042E0,-6.688541107E0,-2.062710571E-1,3.645144882E1,3.706058892E1
2.070167042E0,-3.341950378E0,-5.542973328E-1,3.440505432E1,3.457142810E1
2.080208042E0,7.155120850E-2,8.421487427E-1,2.633533539E1,2.634889417E1
2.090249042E0,4.011058960E0,3.214116211E0,1.772074951E1,1.845112734E1
2.100290042E0,5.319039001E0,4.542603607E0,7.918084259E0,1.056520145E1
2.110331042E0,-5.837860107E-3,3.014880524E0,-8.579858093E0,9.094146664E0
2.120372042E0,1.004411316E0,8.681945801E-3,-2.672901672E1,2.674788314E1
2.130413042E0,5.126988373E0,-5.830375671E-1,-3.318658813E1,3.358534762E1
2.140454042E0,-8.480464783E0,-3.677851868E-1,-2.873170212E1,2.995937675E1
2.150495042E0,-1.151405640E1,3.015329590E0,-2.278920959E1,2.571018828E1
2.160536042E0,-4.070934448E0,5.981860657E0,-1.593810654E1,1.750366831E1
2.170577042E0,3.954776001E0,7.221732330E0,-8.269703064E0,1.166968979E1
2.180618042E0,8.337811432E0,4.929848328E0,-2.384691010E0,9.975432583E0
2.190659042E0,5.951473846E0,1.887125702E0,6.370602264E0,8.919969595E0
2.200700042E0,-5.040019226E-1,2.162702637E0,1.787283325E1,1.801026011E1
2.210741042E0,-4.555776215E0,1.527872772E0,3.139825699E1,3.176381643E1
2.220782042E0,-2.332898712E0,2.014061737E0,4.215414001E1,4.226665804E1
2.230823042E0,6.021827545E0,4.211791534E0,4.154969696E1,4.219453652E1
2.240864042E0,1.138457565E1,6.737788696E0,3.398996750E1,3.647361032E1
2.250905042E0,1.184891006E1,6.437812500E0,2.366893021E1,2.724078480E1
2.260946042E0,6.358776855E-1,8.919950867E-1,9.412127380E0,9.475660267E0
2.270987042E0,-1.892858780E1,-4.650678864E0,-9.705666962E0,2.177430185E1
2.281028042E0,-1.595038101E1,-7.744894409E-1,-2.095357681E1,2.634514888E1
2.291069042E0,-2.088786346E1,1.231938171E0,-2.340443024E1,3.139407375E1
2.301110042E0,-2.274505142E1,5.602848816E-1,-1.956611206E1,3.000806599E1
2.311151042E0,-1.750250336E1,8.360115051E-1,-9.808353424E0,2.008084500E1
2.321192042E0,-1.352362747E1,6.712042236E-1,1.609303436E0,1.363557379E1
2.331233042E0,-2.748584290E0,3.592828674E0,1.150866760E1,1.236578196E1
2.341274042E0,8.350834351E0,4.786745911E0,1.732542160E1,1.981967720E1
2.351315042E0,1.267818558E1,5.659131775E0,2.402893158E1,2.775160743E1
2.361356042E0,8.411607971E0,5.011578369E0,3.451253082E1,3.587458502E1
2.371397042E0,4.224215698E-1,1.743274841E0,3.875171539E1,3.879320679E1
2.381438042E0,-4.643194427E0,1.338965607E0,3.555765747E1,3.588452436E1
2.391479042E0,-2.281555481E0,2.451152802E0,3.048605392E1,3.066941684E1
2.401520042E0,4.796026611E-1,1.510658569E0,2.300161789E1,2.305616043E1
2.411561042E0,-9.113199005E0,-2.001787262E0,9.312584381E0,1.318263161E1
2.421602042E0,-1.444960190E1,-5.069657593E0,-8.735983429E0,1.762979948E1
2.431643042E0,-9.740095367E0,-5.522615662E0,-1.331286575E1,1.739543435E1
2.441684042E0,-2.901805664E1,-1.050799850E1,-9.069489899E0,3.216708396E1
2.451725042E0,-3.298061646E1,-1.398616562E1,-3.520828400E0,3.599625151E1
2.461766042E0,-2.630659515E1,-1.772059982E1,5.608536987E0,3.221043765E1
2.471807042E0,-1.830618210E1,-2.117092484E1,1.991398865E1,3.434954592E1
2.481848042E0,-1.086889801E0,-1.801219345E1,3.384327255E1,3.835345538E1
2.491889042E0,1.711959961E1,-8.736133118E0,4.413841370E1,4.814146109E1
2.501930042E0,2.602039032E1,-1.312919769E0,4.984394897E1,5.624236588E1
2.511971042E0,1.923215652E1,-2.339934082E0,4.804364273E1,5.180292215E1
2.522012042E0,-2.585273895E0,-9.635313263E0,3.698658600E1,3.830836001E1
2.532053042E0,-1.954620346E1,-1.130494125E1,3.060101486E1,3.802996026E1
2.542094042E0,-1.891152328E1,-1.202389618E1,2.911191147E1,3.673857893E1
2.552135042E0,-9.533824310E0,-1.238734039E1,2.502241562E1,2.950358099E1
2.562176042E0,-5.417384491E0,-7.560926971E0,1.633223694E1,1.879514924E1
2.572217042E0,-5.006189575E0,-1.551972656E0,1.336720276E-1,5.242940148E0
2.582258042E0,-5.639073486E0,-5.435197449E0,-1.258807297E1,1.482565689E1
2.592299042E0,-2.188059906E1,-1.003812561E1,-8.812025299E0,2.563545145E1
2.602340042E0,-3.529495377E1,-1.331376389E1,-2.415676575E0,3.779980904E1
2.612381042E0,-3.014027298E1,-1.611099701E1,3.309617615E0,3.433589738E1
2.622422042E0,-1.903202271E1,-2.000080811E1,1.311482758E1,3.056548569E1
2.632463042E0,-4.186643829E0,-2.184602097E1,2.548779785E1,3.382904755E1
2.642504042E0,1.105346420E1,-1.668325699E1,3.617542282E1,4.134212562E1
2.652545042E0,2.269475601E1,-6.177054749E0,4.088253433E1,4.716555490E1
2.662587042E0,2.363390305E1,1.191222839E0,4.076128647E1,4.713239713E1
2.672628042E0,1.226938568E1,-1.175056458E-1,3.730018387E1,3.926646596E1
2.682669042E0,-2.898422699E0,-7.220534821E0,2.906925018E1,3.009249547E1
2.692710042E0,-1.316572174E1,-1.102307739E1,2.310280746E1,2.878513813E1
2.702751042E0,-1.340552307E1,-1.075932587E1,2.067665268E1,2.688856835E1
2.712792042E0,-5.514682159E0,-7.372618561E0,1.770233780E1,1.995344550E1
2.722833042E0,-1.545835419E0,-6.562353516E0,7.009922791E0,9.725898845E0
2.732874042E0,-2.706372070E0,-8.713530121E0,-6.825506287E0,1.139463001E1
2.742915042E0,-7.790848846E0,-9.242380371E0,-9.745184784E0,1.552699414E1
2.752956042E0,-1.199291061E1,-1.186747147E1,-4.438719635E0,1.744617482E1
2.762997042E0,-9.586963806E0,-1.349713257E1,4.166884918E0,1.707177180E1
2.773038042E0,1.435065765E0,-1.026295807E1,1.610650635E1,1.915221316E1
2.783079042E0,2.174333450E1,-4.371060333E0,3.253619064E1,3.937616621E1
2.793120042E0,4.094705017E1,3.458557892E0,4.319896729E1,5.962191975E1
2.803161042E0,4.210339554E1,8.927135925E0,3.752501633E1,5.710093276E1
2.813202250E0,2.460059280E1,3.298690338E0,2.290087738E1,3.377159619E1
2.823243250E0,3.673510895E0,-4.263883209E0,1.513023651E1,1.614309262E1
2.833284250E0,-8.564889221E0,-6.301446075E0,1.275976593E1,1.660955076E1
2.843325250E0,-4.928501129E0,-5.507497101E0,1.200009567E1,1.409343620E1
2.853366250E0,8.387059021E0,1.295106812E0,1.480885483E1,1.706816458E1
2.863407250E0,2.172731781E1,9.473200378E0,1.411280228E1,2.758603003E1
2.873448250E0,3.080054993E1,1.128503265E0,1.670675812E0,3.086646324E1
2.883489250E0,1.013781830E1,-1.769814651E1,-1.192360474E1,2.362566612E1
2.893530250E0,-1.202569244E1,-2.755769348E0,-2.136102951E1,2.466789665E1
2.903571250E0,-2.478096771E0,1.358425140E0,-1.753693176E1,1.776317140E1
2.913612250E0,1.126422592E1,1.126108246E0,-7.041806488E0,1.333183948E1
2.923653250E0,2.459475494E1,8.147257690E0,4.917274475E-1,2.591373332E1
2.933694250E0,3.641148193E1,1.052670959E1,6.445895691E0,3.844681005E1
2.943735250E0,3.762291275E1,9.164991302E0,9.226363678E0,3.980711514E1
2.953776250E0,2.615316422E1,7.675588531E0,1.085991669E1,2.934008262E1
2.963817250E0,1.163395706E1,4.615502014E0,1.547676590E1,1.990432361E1
2.973858250E0,5.939648438E-1,3.469335480E0,2.591680573E1,2.615473001E1
2.983899250E0,1.465901642E0,2.351011047E0,2.523392578E1,2.538556934E1
2.993940250E0,7.745942230E0,2.197280731E0,2.356863876E1,2.490599118E1
3.003981250E0,8.949289856E0,3.805686035E0,1.426952637E1,1.726824884E1
3.014022250E0,2.837349701E0,1.617985382E0,-3.007096710E0,4.439714028E0
3.024063250E0,-1.807191925E0,-2.995121613E0,-1.807147018E1,1.840692073E1
3.034104250E0,2.051783295E0,-1.180445251E0,-1.927287186E1,1.941769439E1
3.044145250E0,7.610174561E-1,2.686014404E0,-1.189157135E1,1.221487987E1
3.054186250E0,2.783910828E0,4.138593750E0,-4.241579590E0,6.547451041E0
3.064227250E0,9.934690704E0,4.136348419E0,2.907853088E0,1.114733453E1
3.074268250E0,1.500210297E1,2.070344696E0,1.400757111E1,2.062914125E1
3.084309250E0,1.286305115E1,6.138734436E-1,3.075863708E1,3.334559462E1
3.094350250E0,6.377787323E0,-2.380050659E-1,4.027255280E1,4.077513122E1
3.104391250E0,4.152365112E0,-4.449946289E0,3.800761276E1,3.849185350E1
3.114432250E0,1.896406403E0,-7.795339508E0,3.248694305E1,3.346289205E1
3.124473250E0,-2.488574982E0,-8.541537781E0,2.480716324E1,2.635424484E1
3.134514250E0,-7.895481262E0,-9.048832855E0,1.473056763E1,1.900551559E1
3.144555250E0,-1.332154770E1,-4.263434143E0,2.024090881E0,1.413284995E1
3.154596250E0,-1.382405273E1,-2.427951050E-1,-1.207164688E1,1.835451012E1
3.164637250E0,-1.388123383E1,-3.062930603E0,-1.629661102E1,2.162521046E1
3.174678250E0,-2.295551376E1,-4.856650543E0,-1.097592545E1,2.590393032E1
3.184719250E0,-2.480327133E1,-5.972430267E0,-3.156486053E0,2.570672278E1
3.194760250E0,-1.686767349E1,-5.112318878E0,8.255033569E0,1.946277967E1
3.204801250E0,-4.520449677E0,-3.205733643E0,2.305640396E1,2.371305457E1
3.214842250E0,8.320896606E0,-2.620450745E0,3.377486481E1,3.488331371E1
3.224883250E0,1.621368347E1,2.584824829E0,3.774730408E1,4.116337955E1
3.234924250E0,1.346749420E1,2.971620483E0,3.477927612E1,3.741392757E1
3.244965250E0,-7.081773376E-1,-2.605781250E0,3.073663284E1,3.085501920E1
3.255006250E0,-1.547796341E1,-5.270240479E0,2.909215256E1,3.337208604E1
3.265047250E0,-2.157134216E1,-6.625522156E0,2.687556198E1,3.509296480E1
3.275088250E0,-2.045616119E1,-7.451354828E0,2.131492538E1,3.046806958E1
3.285129250E0,-1.690225159E1,-3.195554810E0,1.164712967E1,2.077386119E1
3.295170250E0,-1.205113953E1,2.324067078E0,-1.410965881E0,1.235403077E1
3.305211250E0,-4.320016479E0,4.983736267E0,-1.191522217E1,1.361883581E1
3.315252250E0,-5.498515778E0,5.053491211E0,-1.681049240E1,1.839467597E1
3.325293250E0,-8.819210358E0,5.204078064E0,-1.504027359E1,1.819534912E1
3.335334250E0,-5.090164948E0,6.904841309E0,-8.297844543E0,1.193485805E1
3.345375250E0,2.472408600E0,1.021041733E1,7.274871826E-2,1.050574694E1
3.355416250E0,1.131526978E1,1.444181808E1,6.658453674E0,1.951759322E1
3.365457250E0,1.520343430E1,1.476394821E1,1.066157913E1,2.372315010E1
3.375498250E0,1.107457031E1,1.262878830E1,1.119851257E1,2.018759732E1
3.385539250E0,-4.318220215E0,8.679251404E0,9.857301636E0,1.382544127E1
3.395580250E0,-2.181952606E1,7.015161896E0,1.093685669E1,2.539525641E1
3.405621250E0,-2.689666809E1,5.764812012E0,1.759770538E1,3.265490846E1
3.415662250E0,-1.547062866E1,3.614234161E0,2.068832840E1,2.608466929E1
3.425703250E0,-5.524561615E0,4.201163635E0,1.886047943E1,2.009697095E1
3.435744250E0,-4.733007660E0,6.134842529E0,1.257085876E1,1.476699511E1
3.445785250E0,-9.821526031E0,8.591533813E0,-9.626331940E0,1.621552014E1
3.455826250E0,1.795665894E0,8.410560150E0,-3.813724319E1,3.909490065E1
3.465867250E0,2.006337799E1,7.982001343E0,-4.510091217E1,5.000343749E1
3.475908250E0,8.356522522E0,1.119372253E1,-3.438828918E1,3.711718370E1
3.485949250E0,2.634521484E-2,1.571462128E1,-1.804886719E1,2.393139408E1
3.495990250E0,-4.126019897E0,1.308174637E1,-2.775528259E0,1.399498787E1
3.506031250E0,-3.100951538E0,9.057963867E0,8.572972412E0,1.285139937E1
3.516072250E0,2.671793976E0,7.937843170E0,1.329879501E1,1.571641772E1
3.526113250E0,3.645519104E0,1.030023056E1,1.271126678E1,1.676188720E1
3.536154250E0,-2.838547211E0,1.216146011E1,6.223907318E0,1.395333239E1
3.546195250E0,-1.637070694E1,1.029035110E1,1.372046814E0,1.938488803E1
3.556236250E0,-2.548076248E1,6.644682312E0,7.149582367E0,2.728621608E1
3.566277250E0,-1.752959702E1,5.816304932E0,1.209619583E1,2.207791041E1
3.576318250E0,-1.710942078E0,5.869893494E0,1.343156891E1,1.475771038E1
3.586359250E0,7.718399506E0,6.781797180E0,1.120899078E1,1.520552328E1
3.596400250E0,1.237446716E1,1.055036041E1,5.422174530E0,1.714168950E1
3.606441250E0,1.375145370E1,1.382360367E1,-2.575244751E0,1.966790235E1
3.616482250E0,1.162003601E1,1.348111588E1,-1.363080460E1,2.241795165E1
3.626523250E0,8.872349854E0,8.872349854E0,-2.532748123E1,2.826514619E1
3.636564250E0,2.885998535E0,3.061433716E0,-2.911834808E1,2.942073349E1
3.646605250E0,-1.142169846E1,5.842350769E-1,-2.708871872E1,2.940399987E1
3.656646250E0,-1.951476883E1,-1.077758789E0,-2.271690994E1,2.996741170E1
3.666687250E0,-1.993090347E1,-3.698059845E0,-1.557840454E1,2.556566541E1
3.676728250E0,-1.636022873E1,-5.144651642E0,-6.420149231E0,1.831236852E1
3.686769250E0,-5.976172485E0,-4.367467804E0,2.853067017E0,7.932805556E0
3.696810250E0,8.332722015E0,-2.597548370E0,1.283760406E1,1.552371063E1
3.706851250E0,1.526959671E1,-2.668201447E0,2.939287720E1,3.322982264E1
3.716892250E0,1.253747818E1,-2.008972321E0,4.648238937E1,4.818544231E1
3.726933250E0,9.891730042E0,-2.697690125E0,4.966267593E1,5.071001120E1
3.736974250E0,1.156330399E1,-2.922223206E0,4.366704391E1,4.526654517E1
3.747015250E0,1.193812454E1,-3.861519928E0,3.615910675E1,3.827415779E1
3.757056250E0,4.054019623E0,-1.028211823E1,2.830688553E1,3.038810291E1
3.767097250E0,-1.093521011E1,-1.227402603E1,1.463880844E1,2.201193421E1
3.777138250E0,-1.982447479E1,-2.446362762E0,-1.387913818E0,2.002300668E1
3.787179250E0,-2.878738632E1,-5.113217010E0,-1.144684616E1,3.139886760E1
3.797220250E0,-2.713781662E1,-9.555080109E0,-1.518412445E1,3.253180416E1
3.807260500E0,-1.193707672E1,-9.294771423E0,-1.103535187E1,1.872606652E1
3.817301500E0,5.526357880E0,-1.143906235E1,-2.026485901E0,1.286465794E1
3.827342500E0,1.568633011E1,-1.412537613E1,9.481882324E0,2.314072807E1
3.837383500E0,1.452115311E1,-1.637385040E1,2.345053436E1,3.207638425E1
3.847424500E0,9.230405273E0,-1.126707001E1,3.884931244E1,4.148995451E1
3.857465500E0,8.711284790E0,-3.892206116E0,5.228402481E1,5.314748349E1
3.867506500E0,1.282862274E1,-2.052980804E0,5.509637650E1,5.660741113E1
3.877548500E0,1.750744308E1,-2.113305359E0,4.666860214E1,4.988922778E1
3.887588500E0,1.995455429E1,-5.304369507E0,3.590089371E1,4.141490966E1
3.897630500E0,1.667173096E1,-1.090108109E1,2.699666016E1,3.354996038E1
3.907671500E0,9.699529724E0,-1.552571411E1,1.990665390E1,2.704447347E1
3.917712500E0,9.916877747E-1,-1.916734131E1,1.310240341E1,2.323883372E1
3.927753500E0,-1.341031311E1,-1.992910721E1,5.018464050E0,2.453957606E1
3.937794500E0,-2.942131805E1,-1.376702133E1,-8.318501587E0,3.353121383E1
3.947835500E0,-3.638109512E1,-8.998387756E0,-2.142599442E1,4.316976142E1
3.957876500E0,-3.687282257E1,-1.095706467E1,-2.426184723E1,4.547856134E1
3.967917500E0,-3.259995804E1,-1.661065796E1,-1.438718170E1,3.931491090E1
3.977958500E0,-2.675341599E1,-2.376847321E1,-1.779200134E0,3.583086851E1
3.987999500E0,-2.126433060E1,-2.876882492E1,1.093550949E1,3.740858739E1
3.998040500E0,-1.546718582E1,-2.913840637E1,2.565964050E1,4.179351282E1
4.008081500E0,-6.847510529E0,-2.325234650E1,4.127007843E1,4.786208721E1
4.018122500E0,5.148842926E0,-1.452025497E1,5.397326202E1,5.612897114E1
4.028163500E0,1.283086807E1,-1.008437943E1,5.493471268E1,5.730749114E1
4.038204500E0,1.006192612E1,-1.092817474E1,4.324956207E1,4.572955259E1
4.048245500E0,1.033001862E0,-1.575892914E1,3.090757736E1,3.470863407E1
4.058286500E0,-1.074914703E1,-2.020767792E1,2.522928543E1,3.406480959E1
4.068327500E0,-2.265733383E1,-2.023102936E1,2.535771835E1,3.956846226E1
4.078368500E0,-2.569032669E1,-2.034913376E1,2.221245895E1,3.959133065E1
4.088409500E0,-1.587359070E1,-1.489088425E1,3.245401154E0,2.200549804E1
4.098450500E0,-4.181554413E0,-7.531887360E0,-1.178604080E1,1.459881784E1
4.108491500E0,2.672392731E0,-6.450835419E0,-1.101574265E1,1.304229836E1
4.118532500E0,8.381520538E0,-5.226082306E0,-3.850592651E0,1.060136249E1
4.128573500E0,1.282203644E1,4.192781067E0,4.451742554E0,1.420570460E1
4.138614500E0,1.839225311E1,1.967942642E1,1.494237717E1,3.080307508E1
4.148655500E0,2.690011093E1,3.402514435E1,3.429293747E1,5.529314583E1
4.158696500E0,2.799194046E1,4.258269882E1,4.944517822E1,7.100465210E1
4.168737500E0,3.039698914E1,3.435176514E1,3.476505569E1,5.755544991E1
4.178778500E0,2.351460114E1,1.396790359E1,8.269703064E0,2.857318299E1
4.188819500E0,-5.689967651E0,5.538482666E-2,-7.672445068E0,9.552236004E0
4.198860500E0,-3.429009338E1,-3.448379059E0,-1.825678482E1,3.900015403E1
4.208901500E0,-4.194337830E1,-3.220403137E0,-6.111640778E0,4.250847130E1
4.218942500E0,-3.248155426E1,-5.795797577E0,-2.694396973E0,3.310441680E1
4.228983500E0,-7.010072479E0,-1.323248291E1,-5.585185547E0,1.598230327E1
4.239024500E0,5.174589386E0,-2.103425903E0,-8.485404510E0,1.015888112E1
4.249065500E0,1.531135986E1,7.510182495E0,-1.345417191E1,2.172223109E1
4.259106500E0,3.248170395E1,1.412507675E1,-1.940893890E1,4.038917917E1
4.269147500E0,4.643254303E1,1.547871185E1,-1.566851715E1,5.139138063E1
4.279188500E0,3.593427429E1,1.033046768E1,-1.669029236E0,3.742694604E1
4.289229500E0,1.016536102E1,6.984475708E0,8.578510895E0,1.502359194E1
4.299270500E0,-7.103029175E0,2.763702850E0,1.548963913E1,1.726325570E1
4.309311500E0,-9.717043304E0,-3.623664551E0,1.872141861E1,2.140194828E1
4.319352500E0,-6.888375549E0,-3.772604828E0,1.494611938E1,1.688397908E1
4.329393500E0,-3.711980896E0,-6.876699829E-1,6.776707764E0,7.757284337E0
4.339434500E0,2.359094238E-1,2.549498291E0,-5.492079163E-1,2.618630201E0
4.349475500E0,6.084846497E-1,5.717210999E0,-6.914421387E0,8.992551267E0
4.359516500E0,-2.602488098E0,4.851261749E0,-1.144789398E1,1.270283281E1
4.369557500E0,-7.916587372E0,6.533912659E-1,-8.934919739E0,1.195541996E1
4.379598500E0,-8.138725433E0,-1.524130554E0,3.586541748E-1,8.287970707E0
4.389639500E0,-1.600022736E0,-3.644770660E0,5.713169403E0,6.963097770E0
4.399680500E0,6.798262939E0,-4.573439484E0,5.637875977E0,9.945771626E0
4.409721500E0,1.344758560E1,-1.463207245E0,1.416803741E0,1.360095095E1
4.419762500E0,2.023776535E1,3.192860413E0,-8.369994507E0,2.213183933E1
4.429803500E0,3.435865082E1,4.934788055E0,-1.709056000E1,3.869051900E1
4.439844500E0,4.145105209E1,7.653584290E-1,-1.740909760E1,4.496501053E1
4.449885500E0,2.861359772E1,-7.303312683E-1,-1.084779190E1,3.060957280E1
4.459926500E0,1.562181427E1,2.498903503E0,-5.652096405E0,1.679975576E1
4.469967500E0,1.363664246E1,3.566333771E0,-2.198927307E0,1.426576445E1
4.480008500E0,1.686467972E1,3.052452393E0,-7.708969116E-1,1.715602430E1
4.490049500E0,2.064252365E1,3.397484894E0,-2.913690948E0,2.112217511E1
4.500090500E0,2.141536652E1,4.306843872E0,-8.649762726E0,2.349436576E1
4.510131500E0,1.407627823E1,3.245101776E0,-1.542287796E1,2.113143296E1
4.520172500E0,6.024971008E-1,5.044509888E-2,-1.737182510E1,1.738234319E1
4.530213500E0,-6.936725006E0,-3.338507538E0,-1.035501663E1,1.290310644E1
4.540254500E0,-1.472787323E0,-6.114484863E0,-3.978726196E-1,6.301930677E0
4.550295500E0,7.256460114E0,-6.742578735E0,6.701114960E0,1.195924425E1
4.560336500E0,8.622519379E0,-8.179291077E0,5.222340088E0,1.298158230E1
4.570377500E0,3.913012848E0,-1.354084167E1,-3.704496460E0,1.457358421E1
4.580418500E0,-2.458188171E0,-1.572001007E1,-2.128289200E1,2.657297307E1
4.590459500E0,2.782413940E0,-8.174650726E0,-4.112233566E1,4.201920076E1
4.600500500E0,2.235690857E1,-3.166215820E0,-4.777944214E1,5.284629953E1
4.610541500E0,3.575809067E1,-3.936663666E0,-3.555451401E1,5.057926290E1
4.620581500E0,3.108900009E1,-4.623884583E0,-1.914099609E1,3.680059737E1
4.630623500E0,1.970981323E1,-2.852468262E0,-1.089718918E1,2.270158684E1
4.640664500E0,1.161240189E1,-4.353546753E0,-6.518943787E0,1.401063435E1
4.650705500E0,9.160800018E0,-6.864874420E0,-3.516637115E0,1.197553733E1
4.660746500E0,1.013287857E1,-6.243217163E0,-2.828368378E0,1.223326025E1
4.670786500E0,9.247170410E0,-4.083059235E0,-4.323609009E0,1.099432254E1
4.680827500E0,6.341113586E0,-2.710563354E0,-6.854246521E0,9.723043278E0
4.690868500E0,2.402653656E0,-3.355272675E0,-7.031477966E0,8.153053520E0
4.700909500E0,7.993377686E-1,-3.732488251E0,1.036295013E0,3.955289719E0
4.710951500E0,3.200943604E0,-2.498005371E0,7.410938873E0,8.450330513E0
4.720991500E0,6.418502655E0,-1.053658905E0,7.506589966E0,9.932586085E0
4.731032500E0,7.573949890E0,3.387455750E-1,2.282154236E0,7.917556028E0
4.741073500E0,7.802674255E0,1.409918060E0,-8.179740143E0,1.139200348E1
4.751114500E0,1.300794983E1,2.373614044E0,-1.831172058E1,2.258671984E1
4.761155500E0,2.163002014E1,1.084644470E0,-1.998224670E1,2.946734478E1
4.771196500E0,1.746193771E1,-1.585802307E0,-1.269554947E1,2.164742511E1
4.781237500E0,4.365970917E0,-7.430548096E-1,-3.237617340E0,5.485982003E0
4.791278500E0,-4.627177734E0,-5.950126648E-1,5.267695770E0,7.036578187E0
4.801319500E0,-7.372468872E0,-3.138972473E-1,1.417806656E1,1.598341015E1
4.811360750E0,-5.409750366E0,1.954335938E0,2.041784088E1,2.121256831E1
4.821401750E0,-9.868977356E-1,5.570815430E0,1.903815994E1,1.986100415E1
4.831442750E0,2.990032196E0,8.008795624E0,1.257954071E1,1.520940316E1
4.841483750E0,1.797462158E0,7.792046356E0,9.751920776E0,1.261137643E1
4.851524750E0,-4.620292053E0,5.806575165E0,1.279389496E1,1.479010352E1
4.861565750E0,-1.090886490E1,4.421355743E0,1.777778091E1,2.132137928E1
4.871606750E0,-9.564959564E0,5.151237946E0,2.140114609E1,2.400068244E1
4.881647750E0,-1.561403046E0,8.047714691E0,2.263083893E1,2.406986834E1
4.891688750E0,5.366190948E0,9.644593964E0,2.064042801E1,2.340601347E1
4.901729750E0,6.332731018E0,9.076824646E0,1.474388992E1,1.843568599E1
4.911770750E0,4.118086395E0,1.101993393E1,2.535726929E0,1.203442938E1
4.921811750E0,3.711980896E0,1.302696030E1,-6.680607605E0,1.510334449E1
4.931852750E0,-1.971550140E0,8.677455139E0,-4.561015320E0,9.999404902E0
4.941893750E0,-1.493489273E1,3.608695679E0,9.527687073E-1,1.539420260E1
4.951934750E0,-2.315280350E1,2.063758392E0,3.847449188E0,2.356086318E1
4.961975750E0,-2.672317886E1,8.907975769E-1,8.745114441E0,2.813181181E1
4.972016750E0,-2.727553024E1,-2.556833038E0,1.639076523E1,3.192411518E1
4.982057750E0,-2.513108963E1,-5.133724365E0,2.266227356E1,3.422726157E1
4.992098750E0,-1.673205551E1,-2.948568420E0,2.491284348E1,3.015469296E1
5.002139750E0,-3.532204742E0,2.587369537E0,2.571846817E1,2.608851388E1
5.012180750E0,7.102580109E0,4.939877472E0,2.490011993E1,2.636029223E1
5.022221750E0,2.689906311E0,6.312373352E-1,1.960233673E1,1.979610219E1
5.032262750E0,-1.335388046E1,-2.741399231E0,1.661380142E1,2.149092345E1
5.042303750E0,-2.046439407E1,-2.878364410E0,1.914892960E1,2.817370957E1
5.052344750E0,-1.404798706E1,-4.140240326E0,2.051992859E1,2.521021618E1
5.062385750E0,-4.970563660E0,-3.018922119E0,1.892559402E1,1.979895207E1
5.072426750E0,4.493356018E0,2.707120514E0,1.413315994E1,1.507530961E1
5.082467750E0,1.321077805E1,5.045258331E0,6.350993042E0,1.550207731E1
5.092508750E0,1.223450821E1,1.489253082E0,1.807341614E0,1.245662673E1
5.102549750E0,-7.080276489E-2,-5.498066711E-1,1.329834595E0,1.440749963E0
5.112590750E0,-6.897356873E0,-6.012995911E-1,-3.043171692E-1,6.930202159E0
5.122631750E0,-3.670966187E0,1.115180969E0,-1.618135071E-1,3.840026686E0
5.132672750E0,3.785927124E0,2.846331024E0,2.750081177E0,5.477023915E0
5.142713750E0,1.180310532E1,4.373006287E0,5.824687500E0,1.386951562E1
5.152754750E0,1.764695297E1,5.841901703E0,7.618108063E0,2.008925920E1
5.162795750E0,1.970996292E1,7.338639221E0,1.004531067E1,2.330764961E1
5.172836750E0,1.782089127E1,7.399861908E0,1.621473129E1,2.520435741E1
5.182877750E0,1.280272659E1,6.177354126E0,2.433998474E1,2.818695389E1
5.192918750E0,7.810907135E0,3.713178406E0,2.787533295E1,2.918616369E1
5.202959750E0,6.796915741E0,3.616629181E0,2.669398956E1,2.778213723E1
5.213000750E0,9.291927338E0,4.893473969E0,2.432217178E1,2.649252803E1
5.223041750E0,1.205742645E1,3.567531281E0,2.126118713E1,2.470115160E1
5.233082750E0,9.386680298E0,-1.878892822E0,1.734622833E1,1.981241133E1
5.243123750E0,2.028282166E-1,-7.953859863E0,7.015161896E0,1.060742770E1
5.253164750E0,-6.768923950E0,-7.770940247E0,-7.810607758E0,1.293102615E1
5.263205750E0,-7.439529419E0,-4.535418549E0,-1.537976761E1,1.767636476E1
5.273246750E0,-6.472240906E0,-4.584516449E0,-1.700748276E1,1.876598420E1
5.283287750E0,5.628295898E-2,-9.192384338E-1,-1.353186035E1,1.356316378E1
5.293328750E0,1.083327209E1,4.717739410E0,-8.286318512E0,1.443190645E1
5.303369750E0,2.221006393E1,6.909182281E0,-5.251828766E0,2.384544915E1
5.313410750E0,2.852064102E1,6.168672180E0,-3.533701630E0,2.939330754E1
5.323451750E0,2.795661392E1,4.298311615E0,-2.625540161E0,2.840671058E1
5.333492750E0,2.259386581E1,2.379002838E0,8.372090149E-1,2.273418892E1
5.343533750E0,1.455603058E1,1.091679840E0,1.401011581E1,2.023247726E1
5.353574750E0,1.247490829E1,3.670367432E0,2.183329742E1,2.541235547E1
5.363615750E0,1.643148056E1,5.455555115E0,2.561623077E1,3.091840737E1
5.373656750E0,2.175994995E1,5.692961426E0,2.394136368E1,3.284956813E1
5.383697750E0,2.364363281E1,5.776188354E0,1.942944626E1,3.114304266E1
5.393738750E0,2.018178177E1,3.441044312E0,1.458761490E1,2.513848861E1
5.403779750E0,1.200608322E1,-3.260370026E0,8.962163086E0,1.533285408E1
5.413820750E0,4.867877197E-1,-9.841584320E0,5.770500183E-1,9.870498009E0
5.423861750E0,-8.619375916E0,-8.001011810E0,-8.701854401E0,1.462983599E1
5.433902750E0,-1.166868484E1,-1.981579285E0,-1.525462784E1,1.930773247E1
5.443943750E0,-9.465566254E0,-5.400769043E-1,-1.831411560E1,2.062269279E1
5.453984750E0,-3.631298676E0,8.063731384E-1,-1.758468246E1,1.797380386E1
5.464025750E0,3.188369751E0,2.690355377E0,-1.466904556E1,1.525072495E1
5.474066750E0,1.045665527E1,3.496429138E0,-1.026699966E1,1.506578701E1
5.484107750E0,1.792028458E1,4.769831085E0,-2.928360443E0,1.877400284E1
5.494148750E0,2.294832870E1,5.972879333E0,7.763156433E0,2.495130609E1
5.504189750E0,2.685191116E1,7.204368439E0,1.801309158E1,3.312702109E1
5.514230750E0,2.700668930E1,8.247249756E0,2.342538666E1,3.668960528E1
5.524271750E0,2.087783432E1,7.455995178E0,2.260374527E1,3.166078221E1
5.534312750E0,1.169353317E1,3.703298950E0,1.747526001E1,2.135035957E1
5.544353750E0,1.886676636E0,-1.376986542E0,9.239985352E0,9.530633240E0
5.554394750E0,-1.036339920E1,-2.797083435E0,2.809657288E-1,1.073790764E1
5.564435750E0,-1.905956543E1,-1.013392639E0,-5.010530548E0,1.973320591E1
5.574476750E0,-1.758662842E1,-2.616858215E0,-5.689518585E0,1.866837078E1
5.584517750E0,-1.004830444E1,-4.280648346E0,-8.117619324E-1,1.095222945E1
5.594558750E0,-3.152594147E0,-3.446882172E0,8.238717499E0,9.470813723E0
5.604599750E0,7.574249268E-2,-3.807482300E0,1.695958237E1,1.738188978E1
5.614640750E0,2.622097321E0,-3.021017761E0,2.514396286E1,2.546018089E1
5.624681750E0,9.111702118E0,-1.092727661E0,3.289634171E1,3.415240060E1
5.634722750E0,1.597627716E1,3.465293884E-1,3.585269394E1,3.925273465E1
5.644763750E0,1.629032410E1,2.968327332E0,2.978311569E1,3.407667247E1
5.654804750E0,1.155387360E1,4.490062866E0,2.184647003E1,2.511813911E1
5.664845750E0,7.808961182E0,4.631369019E0,1.664074539E1,1.895636729E1
5.674886750E0,3.222798157E0,3.721261597E0,1.488339981E1,1.567640921E1
5.684927750E0,-4.479434967E0,-1.389111328E-1,1.283520905E1,1.359511770E1
5.694968750E0,-8.144862671E0,-2.726130981E0,5.776787109E0,1.035093461E1
5.705009750E0,-4.988526306E0,1.531315613E-1,-1.408570862E0,5.185838009E0
5.715050750E0,-6.284231873E0,2.972668304E0,-1.372495880E0,7.086047701E0
5.725091750E0,-8.774303741E0,2.368225250E0,3.985312500E0,9.923689470E0
5.735132750E0,-6.747368774E0,1.664239197E0,1.086186264E1,1.289483375E1
5.745173750E0,-3.280877380E0,1.577868805E0,1.797477127E1,1.833974451E1
5.755214750E0,1.549727325E0,1.525777130E0,2.423610077E1,2.433347963E1
5.765255750E0,8.812773743E0,4.527335358E0,2.896027679E1,3.060815869E1
5.775296750E0,1.241338623E1,7.115902405E0,2.827575027E1,3.168984503E1
5.785337750E0,7.102131042E0,6.784192200E0,2.035362442E1,2.259945920E1
5.795378750E0,-4.639152832E0,6.328390045E0,1.394694717E1,1.600273711E1
5.805418750E0,-1.166838547E1,6.515650635E0,1.266246826E1,1.841040535E1
5.815460500E0,-9.980345764E0,5.794001312E0,1.252714966E1,1.703253450E1
5.825501500E0,-5.979166260E0,4.922214203E0,1.050395691E1,1.305035373E1
5.835542500E0,-2.063758392E0,2.292333069E0,3.182831268E0,4.432189581E0
5.845583500E0,7.310048676E0,3.962110748E0,-4.749174042E0,9.575478437E0
5.855624500E0,1.218391342E1,9.042396240E0,-7.005581818E0,1.671199727E1
5.865665500E0,8.816965027E0,1.095077774E1,-4.682412872E0,1.481834659E1
5.875706500E0,7.494016113E0,1.172841064E1,-1.264570312E0,1.397551544E1
5.885747500E0,8.762927399E0,1.251337830E1,1.929337921E0,1.539791797E1
5.895788500E0,8.615783386E0,1.253687943E1,4.887187042E0,1.597778665E1
5.905829500E0,6.629264374E0,1.195174622E1,6.222410431E0,1.501698290E1
5.915870500E0,4.165687408E0,1.144325363E1,6.763984222E0,1.393027235E1
5.925911500E0,8.930429077E-1,1.028541138E1,8.008645935E0,1.306620153E1
5.935952500E0,-2.151326294E0,8.863518219E0,1.061278061E1,1.399361541E1
5.945993500E0,-9.497749329E-1,7.977061615E0,1.315254913E1,1.541185041E1
5.956034500E0,3.975433044E0,8.216413879E0,1.380773666E1,1.655195205E1
5.966075500E0,8.384214935E0,8.996591492E0,1.210742249E1,1.725756060E1
5.976116500E0,1.049422714E1,8.788224792E0,8.233029327E0,1.597324232E1
5.986157500E0,9.836494904E0,5.978567505E0,1.289867706E0,1.158290379E1
5.996198500E0,8.638236694E0,3.957769775E0,-7.161407776E0,1.189827030E1
6.006239500E0,6.565496979E0,5.715714111E0,-1.079764618E1,1.386954582E1
6.016280500E0,2.090402985E0,6.781647491E0,-9.941726074E0,1.221468152E1
6.026321500E0,-9.827064514E-1,6.039939880E0,-8.026907959E0,1.009345516E1
6.036362500E0,-8.668473816E-1,5.348377991E0,-5.356311493E0,7.618834840E0
6.046403500E0,4.502636719E-1,4.821324005E0,-1.670526123E0,5.122358838E0
6.056444500E0,2.724783783E0,4.955295410E0,3.717070312E0,6.767275004E0
6.066485500E0,5.565276947E0,5.246889038E0,1.129640900E1,1.364225085E1
6.076526500E0,8.128546600E0,4.907993774E0,2.174767548E1,2.373021410E1
6.086567500E0,1.086919739E1,3.880380707E0,3.139197006E1,3.344626423E1
6.096608500E0,8.843160553E0,6.151757355E0,2.069581284E1,2.333157252E1
6.106649500E0,6.926246796E0,4.677024078E0,1.494611938E1,1.712407468E1
6.116690500E0,2.284698944E0,-5.972579956E-2,1.028705795E1,1.053788298E1
6.126731500E0,-5.831872559E0,-3.727548523E0,-4.682263184E-1,6.937189014E0
6.136772500E0,-6.063890076E0,5.463638306E-1,-1.148546585E1,1.299943084E1
6.146813500E0,-1.621877289E0,4.313280487E0,-1.142633881E1,1.232055571E1
6.156854500E0,9.647438049E-1,3.499722290E0,-3.869603119E0,5.305903789E0
6.166895500E0,7.122638397E0,4.741539917E0,8.943002930E0,1.237705457E1
6.176936500E0,7.181615753E0,6.003565521E0,2.787278824E1,2.940256329E1
6.186977500E0,1.287322998E0,5.159321136E0,1.559157715E1,1.647340502E1
6.197018500E0,3.806434479E0,5.524860992E0,1.429242874E1,1.578881097E1
6.207059500E0,2.568808136E0,5.492677917E0,1.148307083E1,1.298573069E1
6.217100500E0,3.631897430E0,6.308631134E0,1.601968689E1,1.759601869E1
6.227141500E0,4.285737762E0,6.290668488E0,2.143527512E1,2.274667179E1
6.237182500E0,5.428012390E0,5.286257172E0,2.424343552E1,2.539984250E1
6.247223500E0,6.520740051E0,3.942950592E0,2.134740784E1,2.266668771E1
6.257264500E0,4.170477448E0,2.750380554E0,1.673085800E1,1.746078706E1
6.267305500E0,-2.982847137E0,1.919009399E-1,9.708361359E0,1.015807478E1
6.277346500E0,-1.024095383E1,-2.491568756E0,-3.586691437E0,1.113325674E1
6.287387500E0,-8.570727081E0,1.913171539E0,-1.339579330E1,1.601764235E1
6.297428500E0,-5.047653351E0,5.199437714E0,-1.390668091E1,1.568147731E1
6.307469500E0,-5.204527130E0,2.725981293E0,-8.536298676E0,1.036274441E1
6.317510500E0,-3.238814850E0,1.710642700E0,-2.805166626E-1,3.673541844E0
6.327551500E0,-9.632469177E-1,1.609602814E0,7.400011597E0,7.634057733E0
6.337592500E0,1.149609375E-1,2.121238861E0,1.443418396E1,1.458967227E1
6.347633500E0,1.838925934E0,3.706143036E0,1.993494507E1,2.035974410E1
6.357674500E0,2.135758667E0,4.184548187E0,2.204765167E1,2.254264521E1
6.367715500E0,1.290316772E-1,4.470902710E0,2.194451614E1,2.239570068E1
6.377756500E0,-3.159928894E-1,4.970413971E0,2.125445114E1,2.183017544E1
6.387796500E0,1.745370483E0,4.234244843E0,1.907079208E1,1.961301247E1
6.397837500E0,3.316652985E0,3.415297852E0,1.513981659E1,1.587068029E1
6.407878500E0,1.517693939E0,3.650009766E0,1.002510269E1,1.077630039E1
6.417919500E0,-4.087250519E0,2.636168060E0,1.532064056E0,5.099237111E0
6.427960500E0,-6.560706940E0,1.990261230E0,-9.102870483E0,1.139588813E1
6.438001500E0,-1.068777466E0,5.860014038E0,-1.356509125E1,1.481532147E1
6.448042500E0,2.494861908E0,7.633376312E0,-1.091664871E1,1.355234256E1
6.458083500E0,5.291795654E0,7.020550690E0,-4.915627899E0,1.007246896E1
6.468124500E0,8.740174713E0,7.605534210E0,2.389181671E0,1.182975036E1
6.478165500E0,6.331832886E0,7.602241058E0,9.642198944E0,1.381514304E1
6.488206500E0,2.383493500E0,6.486161957E0,1.440274933E1,1.597468392E1
6.498247500E0,1.019679565E0,6.260730743E0,1.572405167E1,1.695530291E1
6.508288500E0,1.276545410E0,5.964347076E0,1.840931763E1,1.939345198E1
6.518329500E0,2.493365021E0,5.503605194E0,2.077454910E1,2.163535139E1
6.528370500E0,3.195704498E0,5.106780396E0,1.647429153E1,1.754120905E1
6.538411500E0,3.160827026E0,4.975204010E0,1.094718521E1,1.243319534E1
6.548452500E0,8.559201050E-1,4.684807892E0,7.764653320E0,9.108779578E0
6.558493500E0,-2.406994629E0,3.001857605E0,1.992057495E0,4.332789550E0
6.568534500E0,-3.045866089E0,3.587290192E0,-6.269712067E0,7.839339293E0
6.578575500E0,1.821711731E0,6.772366791E0,-9.478589172E0,1.179098123E1
6.588616500E0,7.336393890E0,8.812923431E0,-4.807253265E0,1.243382398E1
6.598657500E0,4.227957916E0,8.537795563E0,-1.061293030E-1,9.527898228E0
6.608698500E0,3.052751770E0,7.268584900E0,3.538791046E0,8.641450219E0
6.618739500E0,3.485352173E0,7.011868744E0,8.299640808E0,1.141043472E1
6.628780500E0,3.513493652E0,7.548802185E0,7.669600983E0,1.132041657E1
6.638821500E0,4.379742279E0,7.143894196E0,8.808881836E0,1.215786848E1
6.648862500E0,3.729494476E0,6.426436157E0,9.930349731E0,1.240242140E1
6.658903500E0,2.869832153E0,6.098617859E0,8.947792969E0,1.120232455E1
6.668944500E0,2.538421326E0,6.054309998E0,8.350235596E0,1.062189658E1
6.678985500E0,2.249971161E0,5.949228516E0,7.539521484E0,9.864080006E0
6.689026500E0,1.796713715E0,5.955964508E0,6.514902191E0,9.008087697E0
6.699067500E0,2.208956451E0,6.453230438E0,5.915698242E0,9.028796010E0
6.709108500E0,2.776576080E0,7.048392792E0,5.270988922E0,9.228897003E0
6.719149500E0,3.301833801E0,7.356302490E0,4.738695831E0,9.352675070E0
6.729190500E0,3.938759308E0,7.736062775E0,5.339845734E0,1.019188131E1
6.739231500E0,4.247567139E0,8.101602631E0,4.822371826E0,1.034084435E1
6.749272500E0,4.290228424E0,7.985743561E0,5.567971344E0,1.063863079E1
6.759313500E0,4.227508850E0,7.392227783E0,6.612648926E0,1.078165055E1
6.769354500E0,3.806135101E0,7.232360229E0,6.841223602E0,1.065814427E1
6.779395500E0,3.430117035E0,7.078480225E0,7.134463806E0,1.061937658E1
6.789436500E0,3.123853912E0,6.804849243E0,7.050039368E0,1.028433233E1
6.799477500E0,2.871329041E0,6.625821533E0,6.758445740E0,9.890532355E0
6.809521417E0,2.836451569E0,6.607260132E0,6.505471802E0,9.696520371E0
6.819562417E0,3.042423248E0,6.700366516E0,6.020480347E0,9.507756532E0
6.829603417E0,3.458408203E0,6.707401886E0,5.710624695E0,9.463670628E0
6.839644417E0,3.696712646E0,6.676566010E0,5.481451263E0,9.396197424E0
6.849684417E0,3.711232452E0,6.761439514E0,5.412594452E0,9.422658294E0
6.859725417E0,3.536096649E0,6.690337372E0,5.571114807E0,9.396909804E0
6.869766417E0,3.435056763E0,6.595883789E0,5.505700836E0,9.253001655E0
6.879807417E0,3.516188049E0,6.559509430E0,4.843927002E0,8.879998376E0
6.889848417E0,4.092489624E0,6.712940369E0,1.259181519E0,7.962259592E0
6.899889417E0,3.782035217E0,7.218289490E0,3.650758209E0,8.929475295E0
6.909930417E0,3.603755951E0,6.990912323E0,5.629643097E0,9.672269303E0
6.919971417E0,3.628753967E0,7.040159912E0,5.817951508E0,9.827525970E0
6.930012417E0,3.522774353E0,7.147187347E0,6.548432465E0,1.031378659E1
6.940053417E0,3.949387207E0,7.152875519E0,6.245761871E0,1.028449458E1
6.950094417E0,4.085603943E0,7.016509094E0,5.532794495E0,9.825241695E0