"Time (s)","Acceleration x (m/s^2)","Acceleration y (m/s^2)","Acceleration z (m/s^2)","Absolute acceleration (m/s^2)"
2.257833316E-3,-4.420457611E0,6.433920593E0,7.144642639E0,1.058214053E1
1.229883335E-2,-4.855453033E0,6.358178101E0,7.254514160E0,1.079952909E1
2.233983332E-2,-5.089416504E0,6.255341949E0,7.391329651E0,1.093906839E1
3.238083335E-2,-5.009333038E0,6.210585022E0,8.102650452E0,1.137179529E1
4.242183332E-2,-4.449946289E0,6.289470978E0,8.973389740E0,1.182713789E1
5.246183334E-2,-3.318748627E0,6.116730194E0,8.874445496E0,1.127760008E1
6.250283332E-2,-3.210823059E0,6.211333466E0,7.940088501E0,1.057993637E1
7.254383335E-2,-2.371817780E0,6.662644958E0,8.304580536E0,1.090790609E1
8.258483332E-2,-1.694027252E0,6.663992157E0,8.843609619E0,1.120214046E1
9.262583335E-2,-1.045126648E0,6.765930176E0,8.469836884E0,1.089074092E1
1.026668333E-1,-4.052073669E-1,6.621630249E0,7.496860199E0,1.001064898E1
1.127078333E-1,1.633103943E-1,6.360872498E0,6.378086700E0,9.009292934E0
1.227488333E-1,1.279838562E-1,6.514602814E0,6.120771790E0,8.939814147E0
1.327888333E-1,2.583627319E-1,6.456972656E0,5.712420959E0,8.625021762E0
1.428298333E-1,5.146298218E-1,6.417305145E0,5.404660950E0,8.405772372E0
1.528708333E-1,5.421725464E-1,6.585106201E0,5.884113922E0,8.847619533E0
1.629118333E-1,1.237027588E0,6.449488220E0,5.464386749E0,8.543164408E0
1.729528333E-1,1.530118103E0,6.250252533E0,5.175038452E0,8.257598992E0
1.829938333E-1,-4.790039063E-2,5.800138550E0,6.640940094E0,8.817368484E0
1.930348333E-1,-2.368674316E0,4.420307922E0,1.121767273E1,1.228763287E1
2.030758333E-1,-8.963360596E-1,5.887407074E0,5.820047150E0,8.326939967E0
2.131158334E-1,-8.011340332E-1,6.777306519E0,7.123835907E0,9.865228706E0
2.231568333E-1,1.012195129E0,7.967930603E0,5.835315399E0,9.927908283E0
2.331978333E-1,2.852168884E0,8.702752533E0,5.243446198E0,1.055303260E1
2.432388333E-1,4.699776764E0,8.598269806E0,4.768034821E0,1.089735295E1
2.532798333E-1,5.997128906E0,7.915240173E0,3.232677612E0,1.044350452E1
2.633208333E-1,5.893095245E0,7.702233124E0,1.444945221E0,9.805143209E0
2.733618333E-1,5.252876587E0,8.223449249E0,1.175804901E0,9.828547561E0
2.834028333E-1,4.020938416E0,8.931476898E0,4.133803711E0,1.063144197E1
2.934428333E-1,3.471580811E0,9.538913727E0,6.106551361E0,1.184621112E1
3.034838333E-1,6.173312531E0,8.957373047E0,4.137994995E0,1.163904301E1
3.135248333E-1,7.473508759E0,8.242160339E0,3.414250031E0,1.163802576E1
3.235658333E-1,6.609655151E0,8.512049103E0,1.548978882E0,1.088769290E1
3.336068333E-1,5.329517212E0,1.081575851E1,3.462300110E-1,1.206251471E1
3.436478333E-1,1.660946045E0,1.206730591E1,2.980003052E0,1.254029632E1
3.536888333E-1,4.337979126E0,1.038779846E1,6.787185974E0,1.314497293E1
3.637298333E-1,4.363575897E0,8.334518280E0,9.203461304E0,1.316087723E1
3.737708333E-1,3.144361267E0,4.720134430E0,1.286634430E1,1.406092075E1
3.838108333E-1,3.178490295E0,4.034410400E0,1.805949509E1,1.877563929E1
3.938518333E-1,5.190606079E0,4.862937469E0,2.137480087E1,2.252715394E1
4.038928333E-1,6.786736908E0,5.372627563E0,2.264655624E1,2.424441038E1
4.139338333E-1,7.894283752E0,6.090834045E0,1.898187698E1,2.144130661E1
4.239748333E-1,8.231083374E0,6.953939209E0,1.534608765E1,1.875127756E1
4.340158333E-1,6.171965332E0,7.066205750E0,1.210293182E1,1.531356844E1
4.440568333E-1,1.264869690E0,4.034859467E0,7.439679108E0,8.557383448E0
4.540978333E-1,-5.592819672E0,1.032852173E-2,-3.028202820E-1,5.601021218E0
4.641378333E-1,-1.569605988E1,4.731361084E0,-1.845542175E1,2.468511020E1
4.741788333E-1,-1.740296036E1,1.010144394E1,-3.425117432E1,3.972461631E1
4.842198333E-1,-4.195774841E0,2.866539001E0,-2.854848312E1,2.899719747E1
4.942608333E-1,-6.925498352E0,-3.069666595E0,-1.407657761E1,1.598547521E1
5.043018333E-1,-7.863747253E0,-2.474204865E0,-4.389771423E0,9.339716469E0
5.143428333E-1,-3.791465607E0,-2.383194122E0,1.950294342E0,4.884513660E0
5.243838333E-1,3.772155762E-1,-1.602268066E0,9.574689331E0,9.715154674E0
5.344248333E-1,6.689588928E0,1.522184601E0,2.457993576E1,2.551942178E1
5.444648333E-1,1.278027328E1,2.324965210E0,3.581003265E1,3.809329714E1
5.545058333E-1,8.450826416E0,1.202898560E0,4.098566986E1,4.186512350E1
5.645468333E-1,2.013912048E0,-2.132166138E0,3.841566422E1,3.852746074E1
5.745878333E-1,-1.440753937E0,-5.949527893E0,3.212275040E1,3.270082181E1
5.846288333E-1,-3.628753967E0,-7.987090759E0,2.524275742E1,2.672373993E1
5.946698333E-1,-7.142097931E0,-9.184151459E0,1.638358017E1,2.009427531E1
6.047108333E-1,-1.626697266E1,-6.930288391E0,-2.496358795E0,1.785707434E1
6.147518333E-1,-2.136581955E1,9.698332214E-1,-2.873963562E1,3.582464902E1
6.247928333E-1,-9.067394257E0,1.576671295E0,-3.453004440E1,3.573552151E1
6.348328333E-1,-1.833118011E1,-2.007924500E0,-2.204450821E1,2.874063791E1
6.448738333E-1,-1.739173370E1,-3.534001007E0,-1.450543579E1,2.292093436E1
6.549148333E-1,-9.325457611E0,-4.395010529E0,-7.881111145E0,1.297660164E1
6.649558333E-1,-2.410587158E0,-4.139342194E0,1.230740662E0,4.945685677E0
6.749968333E-1,1.540446625E0,-2.361040192E0,1.352557343E1,1.381624490E1
6.850378333E-1,9.668843536E0,7.598199463E-1,2.957489868E1,3.112456415E1
6.950788333E-1,1.588451797E1,2.134112091E0,4.200265503E1,4.495659435E1
7.051198334E-1,8.480464783E0,2.845283203E0,4.449137970E1,4.538167898E1
7.151598333E-1,3.667972412E0,1.592837677E0,3.891936676E1,3.912426693E1
7.252008333E-1,2.805166626E0,-2.101629639E-1,3.145843185E1,3.158395262E1
7.352418333E-1,1.131047974E0,-1.605411530E0,2.362537079E1,2.370685050E1
7.452828333E-1,-3.406166840E0,-3.442990265E0,1.306243652E1,1.393138193E1
7.553238333E-1,-1.618329666E1,-6.806346130E-1,-8.880133667E0,1.847211759E1
7.653648334E-1,-1.294298492E1,1.989213409E0,-2.851300690E1,3.137625521E1
7.754058333E-1,-1.283431091E1,7.548802185E-1,-2.587055191E1,2.888900893E1
7.854468333E-1,-1.997536102E1,3.779640198E-1,-1.909713730E1,2.763799120E1
7.954868333E-1,-1.347138611E1,-5.560935974E-1,-1.596370331E1,2.089562890E1
8.055278333E-1,-3.961511993E0,-7.897576904E-1,-9.333091736E0,1.016975397E1
8.155688333E-1,2.226020966E0,-1.829794922E0,5.315446472E-1,2.930163563E0
8.256098334E-1,2.671045532E0,-8.349636841E-1,1.617341721E1,1.641374646E1
8.356508333E-1,6.199208679E0,1.288370819E0,3.286939774E1,3.347368213E1
8.456918333E-1,1.004426285E1,9.123527527E-1,4.145209991E1,4.266141337E1
8.557328333E-1,6.156248016E0,1.843865662E0,4.077550690E1,4.127882257E1
8.657738333E-1,5.285808105E0,2.716850281E0,3.466042328E1,3.516626202E1
8.758148333E-1,5.624254303E0,1.514999542E0,2.684996521E1,2.747449894E1
8.858548333E-1,3.347488861E0,-7.514373779E-2,1.876452896E1,1.906092536E1
8.958958333E-1,-3.953728180E0,-2.192790070E0,5.852828979E0,7.395667777E0
9.059368333E-1,-1.490345810E1,-5.978567505E-1,-1.406115967E1,2.049845622E1
9.159778333E-1,-1.043045975E1,1.003513184E0,-2.459131210E1,2.673077178E1
9.260188333E-1,-1.671229660E1,1.170865173E0,-2.131582352E1,2.711154948E1
9.360598333E-1,-1.802207291E1,5.733078003E-1,-1.846739685E1,2.581024099E1
9.461008333E-1,-1.052955368E1,-2.386038208E-1,-1.436158493E1,1.780964778E1
9.561418333E-1,-2.371219025E0,-8.292755127E-2,-7.580835571E0,7.943464269E0
9.661818333E-1,1.750459900E0,-2.114802246E0,2.023941193E0,3.410694409E0
9.762228333E-1,2.467917938E0,-4.650828552E-1,1.823882217E1,1.841090860E1
9.862638333E-1,7.714657288E0,2.949915619E0,3.469889328E1,3.566834919E1
9.963048333E-1,1.171478897E1,1.993853760E0,4.115406967E1,4.283537305E1
1.006345833E0,8.345744934E0,2.394271088E0,3.896996155E1,3.992545423E1
1.016386833E0,6.570137329E0,3.084934845E0,3.297852081E1,3.376783029E1
1.026427833E0,5.212610321E0,7.915539551E-1,2.549872513E1,2.603810376E1
1.036468833E0,1.439855804E0,-1.890119476E0,1.731928436E1,1.748151444E1
1.046508833E0,-1.028062134E1,-2.581831055E0,2.672991486E0,1.093169292E1
1.056549833E0,-1.730656082E1,-3.658392334E-1,-1.573063797E1,2.339025132E1
1.066590833E0,-1.340612183E1,1.612147522E-1,-2.129381927E1,2.516300522E1
1.076631833E0,-2.219689133E1,-4.593946838E-1,-1.861992966E1,2.897610755E1
1.086672833E0,-1.964155518E1,-2.862497406E0,-1.774020905E1,2.662141240E1
1.096713833E0,-1.212074478E1,-4.626129913E0,-1.201970490E1,1.768578067E1
1.106754833E0,-4.017345886E0,-5.602100372E0,-3.652255096E0,7.801382175E0
1.116795833E0,6.267466736E-1,-6.503675537E0,7.479196930E0,9.931213098E0
1.126836833E0,2.447859650E0,-2.479443970E0,2.730980896E1,2.753117006E1
1.136876833E0,9.979597321E0,1.090931396E0,4.436159958E1,4.548333773E1
1.146917833E0,1.031669632E1,1.037193146E0,4.909370911E1,5.017671040E1
1.156958833E0,7.954009552E0,4.131408691E-1,4.362138885E1,4.434255878E1
1.166999833E0,7.947123871E0,-8.851094055E-1,3.500695267E1,3.590859133E1
1.177040833E0,5.715414734E0,-3.622467041E0,2.616049896E1,2.702147181E1
1.187081833E0,1.748364258E-1,-7.657476196E0,1.762719406E1,1.921940374E1
1.197122833E0,-1.373124573E1,-1.036699173E1,4.394112396E0,1.775752940E1
1.207163833E0,-2.840313538E1,-2.868335266E0,-1.616817810E1,3.280816102E1
1.217203833E0,-2.006936554E1,3.158432007E-2,-2.783641388E1,3.431685254E1
1.227244833E0,-2.240001892E1,-1.235979767E0,-2.487287659E1,3.349549945E1
1.237285833E0,-1.649869080E1,-1.182241516E0,-2.089444977E1,2.664924997E1
1.247326833E0,-6.977290649E0,-1.345402222E0,-1.489612335E1,1.650415653E1
1.257367833E0,-1.453627167E0,-1.954186249E0,-5.888754272E0,6.372542877E0
1.267408833E0,2.151026917E0,-3.989354095E0,5.120851135E0,6.838492469E0
1.277449833E0,4.704417114E0,-1.624721375E0,2.200708603E1,2.256286984E1
1.287490833E0,1.361553635E1,4.102668457E0,3.862118683E1,4.115593263E1
1.297530833E0,1.691093353E1,5.866899719E0,4.434618164E1,4.782242164E1
1.307571833E0,1.327783859E1,6.453529816E0,3.972918274E1,4.238345203E1
1.317612833E0,1.212194229E1,7.974516907E0,3.120216476E1,3.441089204E1
1.327653833E0,1.131317413E1,6.874604187E0,2.210707809E1,2.576763461E1
1.337694833E0,7.339237976E0,2.115999756E0,1.226145218E1,1.444593640E1
1.347735833E0,-4.827610931E0,-1.321152649E0,-9.261241150E-1,5.090086198E0
1.357776833E0,-1.634930145E1,1.214424591E0,-1.588032669E1,2.282453200E1
1.367817833E0,-1.625664413E1,1.577719116E0,-2.643891998E1,3.107706817E1
1.377858833E0,-1.839180405E1,-4.676275635E-1,-3.219115814E1,3.707759154E1
1.387898833E0,-1.576970673E1,-1.267713776E0,-3.180406311E1,3.552167196E1
1.397939833E0,-9.284891968E0,-3.506458282E0,-2.441288315E1,2.635324140E1
1.407980833E0,-1.884281616E0,-6.498436432E0,-1.494088028E1,1.640152727E1
1.418021833E0,1.121617584E0,-1.104508163E1,-4.265529785E0,1.189313242E1
1.428062833E0,-4.647834778E-1,-1.254391479E1,1.055739578E1,1.640196414E1
1.438103833E0,2.538421326E0,-9.707762604E0,2.521805878E1,2.714101557E1
1.448144833E0,7.286547546E0,-4.094435577E0,3.761318298E1,3.853063342E1
1.458185833E0,1.075663147E1,-7.894583130E-1,4.106710052E1,4.245980582E1
1.468225833E0,1.361912888E1,-1.737436981E0,3.654410614E1,3.903807183E1
1.478266833E0,1.297337173E1,-3.739972687E0,2.908856003E1,3.206930143E1
1.488307833E0,9.556277618E0,-6.428831177E0,2.253443939E1,2.530717825E1
1.498348833E0,5.159021759E0,-9.567653961E0,1.718426514E1,2.033358001E1
1.508389833E0,-6.062393188E-1,-1.044737457E1,1.174772049E1,1.573289860E1
1.518430833E0,-7.864196320E0,-1.057356216E1,6.959627380E0,1.490242309E1
1.528471833E0,-1.978031662E1,-1.088566315E1,9.475296021E-1,2.259770785E1
1.538512833E0,-2.570679245E1,-9.001082153E0,-5.679938507E0,2.782301852E1
1.548553833E0,-2.341131592E1,-8.412506104E0,-7.804320831E0,2.607234925E1
1.558593833E0,-1.613330063E1,-1.000025436E1,-4.299509125E0,1.946212361E1
1.568634833E0,-2.333048401E0,-1.175969559E1,1.343007202E0,1.206388095E1
1.578675833E0,1.320299423E1,-1.190354645E1,8.480464783E0,1.969598329E1
1.588716833E0,3.086147324E1,-6.859635315E0,2.096061218E1,3.793194419E1
1.598757833E0,4.345074371E1,1.204694824E0,3.690844849E1,5.702325831E1
1.608798833E0,4.226775375E1,4.663851471E0,4.827416336E1,6.433280163E1
1.618839833E0,3.208293320E1,3.803590393E-1,4.992537964E1,5.934646415E1
1.628880833E0,2.560635132E1,-9.967173157E0,4.484135193E1,5.259065137E1
1.638920833E0,1.572135727E1,-1.980770966E1,3.688824051E1,4.472414028E1
1.648961833E0,-2.458786926E0,-2.606335098E1,2.943583786E1,3.939305076E1
1.659002833E0,-2.539618835E1,-2.056618240E1,1.310449905E1,3.520883606E1
1.669043833E0,-3.571752502E1,-6.901847534E0,-1.017778519E1,3.777518239E1
1.679084833E0,-2.763044220E1,-9.290131073E0,-1.161389877E1,3.137882273E1
1.689125833E0,-2.463412308E1,-1.036100418E1,-5.168152771E0,2.721948255E1
1.699166833E0,-1.698697540E1,-1.139131165E1,-2.355651398E0,2.058806469E1
1.709207833E0,-1.147199387E1,-1.479283813E1,5.143154755E0,1.941357113E1
1.719247833E0,-3.374133453E0,-1.694880478E1,1.310824127E1,2.169038380E1
1.729288833E0,1.104717728E1,-1.303279816E1,2.316852081E1,2.878670371E1
1.739329833E0,2.999836807E1,-3.078797607E0,3.964610550E1,4.981159266E1
1.749370833E0,3.902414886E1,2.921923828E0,4.966058029E1,6.322653769E1
1.759411833E0,2.837634109E1,1.523382111E0,4.629393127E1,5.432002853E1
1.769452833E0,1.693892532E1,-5.446424103E0,3.713597534E1,4.117853071E1
1.779493833E0,7.520061951E0,-1.288146286E1,2.914574112E1,3.274076423E1
1.789534833E0,-1.937271423E0,-1.640663223E1,2.681149521E1,3.149264799E1
1.799574833E0,-8.325387268E0,-1.939681412E1,2.724933472E1,3.446845969E1
1.809615833E0,-1.634106857E1,-1.673639648E1,1.365939514E1,2.708720298E1
1.819656833E0,-2.345936600E1,-3.619622955E0,-1.576102478E1,2.849304170E1
1.829697833E0,-1.269435196E1,-4.868625641E0,-2.105551483E1,2.506361491E1
1.839738833E0,-1.714175354E1,-8.546776886E0,-7.278015289E0,2.049040302E1
1.849779833E0,-1.274105484E1,-7.375013580E0,-2.733615417E0,1.497324137E1
1.859820833E0,-6.194867706E0,-6.282884674E0,2.838397522E0,9.268631302E0
1.869861833E0,-7.711962891E-1,-2.904709625E0,1.100750977E1,1.141040547E1
1.879902833E0,6.972500610E0,9.280700684E-3,1.968930588E1,2.088742724E1
1.889942833E0,2.215452942E1,5.188809814E0,3.642914520E1,4.295147892E1
1.899983833E0,3.066029160E1,4.559219055E0,4.618046722E1,5.561902114E1
1.910024833E0,1.066831512E1,9.618997192E-1,4.018408676E1,4.158724597E1
1.920065833E0,-5.848637695E0,-3.703448639E0,3.374432831E1,3.444708678E1
1.930110500E0,-9.476643219E0,-8.097710724E0,2.621363846E1,2.902644530E1
1.940151500E0,-9.860145721E0,-8.791817322E0,2.238789413E1,2.599492891E1
1.950192500E0,-7.729626160E0,-1.231758545E1,1.998194733E1,2.471332132E1
1.960233500E0,-3.780837708E0,-1.650213364E1,1.041444305E1,1.987651309E1
1.970273500E0,-2.022040146E1,-5.048701172E0,-2.484548355E1,3.242918549E1
1.980314500E0,-2.253264313E0,-1.571731567E0,-4.386074112E1,4.394669671E1
1.990355500E0,-3.544179840E0,-5.779780884E0,-2.068174210E1,2.176468548E1
2.000396500E0,-9.006171570E0,6.819818115E-1,-8.937614136E0,1.270657987E1
2.010437500E0,-1.977687378E0,6.781198425E0,-5.938301239E0,9.228180810E0
2.020478500E0,4.605921936E-1,7.806416473E0,1.196461945E0,7.910992637E0
2.030519500E0,5.651048584E0,5.598956909E0,1.156195679E1,1.403429775E1
2.040560500E0,1.622745483E1,5.499563599E0,2.705414063E1,3.202346039E1
2.050600500E0,1.754067398E1,4.087400208E0,3.501578430E1,3.937622677E1
2.060641500E0,2.564467163E0,2.396516418E0,3.307956070E1,3.326525393E1
2.070682500E0,-3.000211029E0,1.694176941E0,2.830808304E1,2.851699611E1
2.080723500E0,-2.935395813E-1,1.174607391E0,2.089519821E1,2.093024549E1
2.090764500E0,1.601669312E0,7.354206848E-1,1.343426331E1,1.354937706E1
2.100805500E0,1.722468109E0,-3.945944366E0,6.240522766E0,7.581655342E0
2.110846500E0,-6.181096344E0,-5.867648163E0,-6.122867432E0,1.049403414E1
2.120887500E0,-1.581805618E1,-1.801054688E0,-3.209176483E1,3.582368029E1
2.130927500E0,3.215313721E0,-3.232976990E0,-4.092220184E1,4.117544154E1
2.140968500E0,-7.892936554E0,-1.917063446E0,-2.630345169E1,2.752898746E1
2.151009500E0,-1.312380890E1,6.427633667E-1,-1.889939850E1,2.301813998E1
2.161050500E0,-5.032235413E0,4.104315033E0,-1.492291763E1,1.627458957E1
2.171091500E0,3.989503784E0,1.005983047E1,-9.766889648E0,1.457767001E1
2.181132500E0,1.139625137E1,1.218436249E1,-2.703527985E0,1.690095554E1
2.191173500E0,1.546778458E1,1.198377960E1,9.429491272E0,2.172046590E1
2.201214500E0,1.787388107E1,9.675729218E0,2.467304214E1,3.196645694E1
2.211254500E0,1.621937164E1,5.680088196E0,3.218082962E1,3.648201219E1
2.221295500E0,1.039827667E1,7.846682739E0,2.990930328E1,3.262301351E1
2.231336500E0,1.043749512E1,1.056652679E1,2.372206970E1,2.798802215E1
2.241377500E0,1.086829926E1,9.024283905E0,1.585203552E1,2.123310290E1
2.251418500E0,7.229216766E0,2.378254395E0,3.147953796E0,8.235732033E0
2.261459500E0,-8.815917206E0,-2.662962341E0,-1.433523972E1,1.703851115E1
2.271500500E0,-1.442654984E1,-5.984704742E0,-2.800167023E1,3.206299372E1
2.281541500E0,-2.135953262E1,-4.837640076E0,-2.954421249E1,3.677625439E1
2.291581500E0,-2.925336731E1,-5.387746124E0,-2.704695557E1,4.020354602E1
2.301622500E0,-2.446632202E1,-5.663323059E0,-1.932002380E1,3.168497217E1
2.311663500E0,-1.269405258E1,-3.164120178E0,-1.038106247E1,1.670081092E1
2.321704500E0,2.897973633E-1,2.416275330E0,-2.250569916E0,3.314729842E0
2.331745500E0,9.621691589E0,5.847589874E0,6.609056396E0,1.305568393E1
2.341786500E0,1.151600235E1,5.330864410E0,1.897783539E1,2.282968816E1
2.351827500E0,1.339100327E1,2.897674255E0,3.575165405E1,3.828702459E1
2.361868500E0,8.633596344E0,4.942721558E-1,4.690900223E1,4.769945263E1
2.371908500E0,2.732268219E0,-3.902384949E-1,4.673192047E1,4.681335244E1
2.381949500E0,4.948858795E0,-2.083816681E0,3.892086365E1,3.928952942E1
2.391990500E0,5.514382782E0,-3.324287109E0,2.917597824E1,2.987803555E1
2.402031500E0,4.275259552E0,-6.927144928E0,2.060285614E1,2.215267167E1
2.412072500E0,-1.672322388E0,-1.474823090E1,1.129326553E1,1.865059847E1
2.422113500E0,-2.487347534E1,-1.359667557E1,-8.841064911E0,2.969383422E1
2.432154500E0,-2.528272430E1,-8.407117310E0,-3.092224686E1,4.081765697E1
2.442195500E0,-2.896117493E1,-7.726183319E0,-2.877196838E1,4.154840221E1
2.452236500E0,-3.567216934E1,-9.873767395E0,-1.919263870E1,4.169355260E1
2.462276500E0,-2.797472626E1,-1.050410660E1,-1.205697739E1,3.222254286E1
2.472317500E0,-1.877725250E1,-1.071217392E1,-3.336411896E0,2.187390057E1
2.482358500E0,-6.657256165E0,-8.055498505E0,4.931195526E0,1.155537992E1
2.492399500E0,6.149062958E0,6.541397095E-1,1.442415482E1,1.569379228E1
2.502440500E0,1.821756638E1,5.084476776E0,2.696178268E1,3.293431879E1
2.512481500E0,2.352433090E1,2.287992096E0,3.535857147E1,4.253066692E1
2.522522500E0,1.219813385E1,4.255650330E-1,3.727802994E1,3.922533736E1
2.532562500E0,4.944817200E0,-2.605032806E0,3.707924332E1,3.749810259E1
2.542603500E0,4.245770874E0,-6.705904999E0,3.370091858E1,3.462293525E1
2.552644500E0,5.673352203E0,-9.016649780E0,2.591920074E1,2.802305954E1
2.562685500E0,7.483837280E0,-1.048928741E1,1.925026886E1,2.316475387E1
2.572726500E0,1.036280045E1,-1.636172562E1,1.046952850E1,2.201601066E1
2.582767500E0,2.495610352E0,-1.756237885E1,-1.636696472E0,1.781415160E1
2.592808500E0,-2.309098206E0,-1.490001526E1,-1.001222946E1,1.809936817E1
2.602849500E0,-1.274285110E1,-1.474598557E1,-1.085707260E1,2.230919922E1
2.612890500E0,-2.687571167E1,-1.431503174E1,-1.117546051E1,3.243632114E1
2.622930500E0,-2.928061066E1,-1.254915390E1,-1.455333618E1,3.502334961E1
2.632971500E0,-2.584091354E1,-1.056667648E1,-1.610141693E1,3.222829645E1
2.643012500E0,-1.724878098E1,-1.053224808E1,-1.484597763E1,2.507691661E1
2.653053500E0,-7.891739044E0,-1.262579453E1,-1.227088257E1,1.929416470E1
2.663094500E0,-2.200573883E0,-1.331720673E1,-9.414971466E0,1.645698053E1
2.673135500E0,-2.406695251E0,-1.319506073E1,-4.566254425E0,1.416871516E1
2.683176500E0,-2.922821960E0,-1.227013412E1,2.281854858E0,1.281818791E1
2.693217500E0,-3.933819580E-1,-7.895780640E0,1.377705048E1,1.588411852E1
2.703257500E0,5.736071777E-1,-4.425846405E0,2.267529648E1,2.311030532E1
2.713298500E0,-1.030906219E0,-4.367467804E0,2.382146301E1,2.424045467E1
2.723339500E0,-3.607498169E0,-6.105802917E0,1.850541779E1,1.981780411E1
2.733380500E0,-1.026804749E1,-7.426057434E0,1.047910858E1,1.644356545E1
2.743421500E0,-1.970996292E1,-1.029858398E1,-1.084045715E0,2.226473951E1
2.753462500E0,-2.621318939E1,-1.006162674E1,-2.198418365E1,3.566050984E1
2.763503500E0,-1.629227005E1,-7.960146790E0,-2.974135254E1,3.483317458E1
2.773544500E0,-8.128696289E0,-5.995781708E0,-2.099384308E1,2.329735068E1
2.783584500E0,-3.764521637E0,-2.908751221E0,-1.525986694E1,1.598424211E1
2.793625500E0,-1.333726501E-1,2.955304413E0,-1.129551086E1,1.167647970E1
2.803666500E0,1.312321014E0,9.815388794E0,-8.417595520E0,1.299692110E1
2.813707500E0,-2.820135498E-1,1.336510712E1,-7.724237366E0,1.543921833E1
2.823748500E0,-7.895930328E0,1.234737350E1,-5.955066376E0,1.581980290E1
2.833789500E0,-2.012445099E1,1.023601410E1,-7.666607208E0,2.384421058E1
2.843830500E0,-2.742267426E1,5.107079773E0,-1.016536102E1,2.968871657E1
2.853871500E0,-2.722553421E1,1.653461609E0,-6.308182068E0,2.799565697E1
2.863911500E0,-2.311283661E1,-1.227447510E-1,-1.793270874E-1,2.311385819E1
2.873952500E0,-1.823822342E1,-1.157692566E0,1.942061462E0,1.837783035E1
2.883993500E0,-1.279524216E1,-3.309617615E-1,-3.606001282E-1,1.280460035E1
2.894034500E0,-6.663243713E0,4.338577881E0,-4.689148865E0,9.230936674E0
2.904075500E0,-2.101180573E0,1.161300064E1,-1.829630264E1,2.177226295E1
2.914116500E0,9.123078461E0,1.491199036E1,-4.060845428E1,4.421136253E1
2.924156583E0,2.016890854E1,1.753917709E1,-4.600428360E1,5.320527901E1
2.934197583E0,6.112838287E0,1.972538086E1,-3.153552155E1,3.769544483E1
2.944237583E0,-8.101752319E0,1.222238342E1,-1.548185532E1,2.132399801E1
2.954278583E0,-1.473026825E1,5.307812347E0,-2.244432678E0,1.581743192E1
2.964319583E0,-1.413315994E1,4.175117798E0,7.032525787E0,1.632893865E1
2.974360583E0,-1.292651917E1,2.157762909E0,1.254511230E1,1.814195913E1
2.984401583E0,-1.527977554E1,1.133592682E0,1.929023575E1,2.463472688E1
2.994442583E0,-1.420620804E1,3.247496796E0,2.942161743E1,3.283282130E1
3.004483583E0,-8.745413818E0,2.261347504E0,4.042433716E1,4.142128668E1
3.014524583E0,-6.808292084E0,5.586383057E-1,4.397031326E1,4.449779058E1
3.024564583E0,-4.923262024E0,-7.080276489E-1,3.854185181E1,3.886147389E1
3.034605583E0,2.694396973E-3,-2.595303040E0,2.841466141E1,2.853293865E1
3.044646583E0,-4.808001709E0,-2.157014465E0,4.688849487E0,7.053715429E0
3.054687583E0,-1.436502777E1,1.547931061E0,-3.239518387E1,3.547108754E1
3.064728583E0,-3.029250641E0,3.539240112E0,-3.672597794E1,3.702026520E1
3.074769583E0,-1.720656876E1,4.167483673E0,-2.077380066E1,2.729440826E1
3.084810583E0,-1.650333115E1,-1.001267853E0,-1.261965729E1,2.079947659E1
3.094851583E0,-1.413241150E1,-3.588038635E0,7.592211914E-1,1.460053057E1
3.104891583E0,-1.093326416E1,-9.131011963E-3,1.611234421E1,1.947161997E1
3.114932583E0,-2.746039581E0,5.843548279E0,2.450119949E1,2.533765116E1
3.124973583E0,8.398884430E0,6.983727264E0,2.794478851E1,3.000374829E1
3.135014583E0,1.523157578E1,4.961582336E0,2.606873978E1,3.059734291E1
3.145055583E0,1.297202454E0,1.590742035E0,1.989976822E1,2.000534852E1
3.155096583E0,-1.454824677E1,-3.945345612E0,1.978929794E1,2.487636527E1
3.165137583E0,-1.928544571E1,-8.359965363E0,2.570993591E1,3.320870732E1
3.175178583E0,-1.305046143E1,-1.178843582E1,2.664578979E1,3.192616288E1
3.185218583E0,-4.057462463E0,-1.645258667E1,1.883129013E1,2.533314228E1
3.195259583E0,3.800746307E0,-1.718531296E1,6.729406128E0,1.884318340E1
3.205300583E0,5.449567566E0,-1.190758804E1,-1.547571808E1,2.027279679E1
3.215341583E0,-3.121458893E0,-1.706750793E0,-5.602130310E1,5.613415097E1
3.225382583E0,2.163825302E1,-2.718496857E0,-6.351232544E1,6.715221293E1
3.235423583E0,9.080566864E0,-4.955295410E0,-4.316977798E1,4.439190668E1
3.245464583E0,-7.695497131E-1,-1.909728699E0,-3.221720398E1,3.228292897E1
3.255505583E0,1.448388062E0,6.018983459E-1,-2.611349670E1,2.616055847E1
3.265546583E0,2.638263702E0,5.181774445E0,-2.085298599E1,2.164851604E1
3.275586583E0,5.925128632E0,4.016896820E0,-1.793121185E1,1.930727759E1
3.285627583E0,9.567055206E0,-2.016905823E0,-9.831106110E0,1.386532011E1
3.295668583E0,8.182434540E0,-1.711241455E0,1.224453735E1,1.482596632E1
3.305709583E0,1.027134064E1,-1.001567230E0,2.010124924E1,2.259565879E1
3.315750583E0,1.394470184E1,-2.058968353E0,2.403551788E1,2.786395844E1
3.325791583E0,1.315988388E1,-1.332828369E0,1.914803146E1,2.327243185E1
3.335832583E0,8.756790161E0,-1.022373962E0,9.515412598E0,1.297188110E1
3.345872583E0,1.862876129E0,-4.110751648E0,-2.548899536E0,5.183191626E0
3.355913583E0,-1.353245911E1,-6.638395386E0,-2.094684082E1,2.580631479E1
3.365954583E0,-1.026295807E1,-9.885143738E0,-3.854289963E1,4.109257216E1
3.375995583E0,1.954335938E0,-6.427633667E0,-3.866878784E1,3.924804526E1
3.386036583E0,-3.746858368E0,-3.299738159E0,-3.426120346E1,3.462307442E1
3.396077583E0,-1.172062683E-1,-5.326224060E0,-2.638383453E1,2.691633565E1
3.406118583E0,5.348976746E0,-5.138963470E0,-1.624811188E1,1.786117682E1
3.416159583E0,6.966662750E0,-5.867797852E0,-8.802894287E0,1.266713817E1
3.426200583E0,5.932912445E0,-9.023236084E0,-2.681074677E0,1.112683248E1
3.436240583E0,5.486390991E0,-9.613009644E0,8.024812317E0,1.367143201E1
3.446281583E0,7.009773102E0,-3.804638214E0,2.729633698E1,2.843768983E1
3.456322583E0,1.068088898E1,-3.819756775E0,3.743714905E1,3.911792505E1
3.466363583E0,8.024662628E0,-4.370461578E0,3.460354156E1,3.578968055E1
3.476404583E0,2.652933197E0,-7.539820862E-1,2.753553955E1,2.767331715E1
3.486445583E0,-1.703607330E0,-3.046165466E-1,1.749561768E1,1.758100415E1
3.496486583E0,-1.192585007E1,3.067720642E0,-1.692081299E0,1.242980084E1
3.506527583E0,-1.141481277E1,6.455924835E0,-2.519336014E1,2.840215328E1
3.516567583E0,6.637197876E0,1.083746338E0,-2.861584305E1,2.939546521E1
3.526608583E0,-4.524940338E0,-5.308261414E0,-1.815649338E1,1.945021789E1
3.536649583E0,-1.344459183E1,-1.223480759E1,-8.277935944E0,1.997427820E1
3.546690583E0,-1.503787857E1,-1.879521515E1,5.549110565E0,2.470203499E1
3.556731583E0,-1.372780289E1,-2.035227722E1,1.849658615E1,3.073746020E1
3.566772583E0,-9.242679749E0,-1.498234406E1,2.411320633E1,2.985539284E1
3.576813583E0,-3.729644165E0,-1.170236481E1,2.505115585E1,2.790010748E1
3.586854583E0,6.569388885E0,-5.899831238E0,3.316623047E1,3.432147611E1
3.596894583E0,1.137948624E1,-1.835034027E0,4.249947189E1,4.403481768E1
3.606935583E0,7.903265076E0,-5.816903687E0,4.048316483E1,4.165554707E1
3.616976583E0,1.285975800E0,-1.076830719E1,3.426883759E1,3.594389243E1
3.627017583E0,-3.237467651E0,-1.110375961E1,3.065939346E1,3.276847695E1
3.637058583E0,-3.310515747E0,-1.093071945E1,2.717493942E1,2.947740618E1
3.647099583E0,-5.359155579E0,-1.142349472E1,2.161145874E1,2.502542565E1
3.657140583E0,-1.767120255E1,-8.118068390E0,9.669741669E0,2.171815687E1
3.667181583E0,-2.662618057E1,-2.170935516E0,-6.937623138E0,2.760067151E1
3.677221583E0,-2.558180237E1,-1.904040527E0,-8.875493317E0,2.714458260E1
3.687262583E0,-2.959211288E1,-4.769082642E0,-4.044738922E0,3.024561468E1
3.697303583E0,-2.380574570E1,-9.282796326E0,1.540446625E0,2.559798452E1
3.707344583E0,-1.133622620E1,-1.214514404E1,1.118953125E1,2.003048072E1
3.717385583E0,1.563049622E0,-1.124192230E1,1.930849777E1,2.239736653E1
3.727426583E0,1.009141479E1,-7.688012695E0,2.341505814E1,2.663094327E1
3.737467583E0,1.565205139E1,-3.408861237E0,3.076372650E1,3.468449100E1
3.747508583E0,2.211276627E1,1.209484863E0,4.406746124E1,4.931914867E1
3.757548583E0,2.033925430E1,-7.719447327E-1,5.240332672E1,5.621734444E1
3.767589583E0,1.302740936E1,-9.185049591E0,4.671335907E1,4.935804338E1
3.777630583E0,7.795489197E0,-1.236892868E1,3.982543259E1,4.242434595E1
3.787671583E0,7.713759155E0,-1.325224182E1,3.561992798E1,3.878019163E1
3.797712583E0,8.044720917E0,-1.740595413E1,2.952415421E1,3.520455163E1
3.807753583E0,1.718875580E0,-2.092887817E1,2.094220047E1,2.965717848E1
3.817794583E0,-1.667262909E1,-1.739293121E1,6.829248505E0,2.504254883E1
3.827835583E0,-2.899829773E1,-1.122291183E1,-8.913514252E0,3.234664987E1
3.837875583E0,-2.978521133E1,-9.521400146E0,-1.555190964E1,3.492388536E1
3.847916583E0,-2.583298004E1,-1.056009018E1,-1.603749985E1,3.218788225E1
3.857957583E0,-1.484478012E1,-1.450483704E1,-1.014185989E1,2.310011074E1
3.867998583E0,-2.491868134E0,-1.801608536E1,4.926255798E-1,1.819426883E1
3.878039583E0,7.518115997E0,-1.700987778E1,1.035247192E1,2.128454099E1
3.888080583E0,1.273342072E1,-1.630409546E1,2.022953247E1,2.893436565E1
3.898121583E0,1.847158813E1,-1.446262482E1,3.459845215E1,4.180215277E1
3.908162583E0,2.860326920E1,-9.348359985E0,5.343977142E1,6.132982971E1
3.918202583E0,2.903946213E1,-8.802445221E0,6.664081970E1,7.322412344E1
3.928241708E0,2.100551880E1,-1.644914383E1,6.045253830E1,6.607810182E1
3.938282708E0,1.560070816E1,-2.487003250E1,4.765729614E1,5.597426630E1
3.948323708E0,9.639055481E0,-3.065325623E1,3.977813095E1,5.113543986E1
3.958364708E0,4.576433258E0,-3.103451340E1,3.517146057E1,4.712872162E1
3.968405708E0,-7.267088013E0,-1.915761154E1,2.205812988E1,3.010624092E1
3.978446708E0,-1.023496628E1,-5.442981262E0,4.788991241E0,1.254252833E1
3.988487708E0,-8.395291901E0,-8.080197144E0,-6.077362061E-1,1.166789849E1
3.998527708E0,-1.737706421E1,-6.706503754E0,-2.489323425E0,1.879192072E1
4.008568708E0,-1.783181854E1,-5.201084290E0,-3.321892090E0,1.886955212E1
4.018609708E0,-1.425051590E1,-8.303233337E0,4.277355194E0,1.703868113E1
4.028650708E0,-1.197345108E1,-1.038690033E1,1.589589432E1,2.244840051E1
4.038691708E0,-8.810079346E0,-1.130913254E1,2.539334427E1,2.916051971E1
4.048732708E0,8.436456299E-1,-1.174487640E1,3.088781845E1,3.305618230E1
4.058773708E0,1.287846909E1,-8.700806580E0,3.317596024E1,3.663609339E1
4.068814708E0,1.559052933E1,-7.499404907E-1,3.043156723E1,3.420098390E1
4.078854708E0,1.348336121E1,2.409689026E0,2.335608078E1,2.707608059E1
4.088895708E0,7.670199738E0,-2.766247559E-1,1.729398697E1,1.892063610E1
4.098936708E0,-1.049317932E0,-3.666026459E0,1.576491669E1,1.621953810E1
4.108977708E0,-6.142925720E0,-7.196285248E0,1.689401871E1,1.936310734E1
4.119018708E0,-6.023174744E0,-1.102217926E1,1.706556198E1,2.118963132E1
4.129059708E0,-3.748504944E0,-1.361374008E1,1.473086700E1,2.040548091E1
4.139100708E0,-5.430407410E0,-1.062505508E1,7.059320068E-1,1.195321966E1
4.149141708E0,-5.451513519E0,-2.443818054E0,-2.434911575E1,2.507131198E1
4.159181708E0,1.011970596E1,-6.361022186E0,-2.282947586E1,2.576928443E1
4.169222708E0,-3.140469360E0,-7.504344635E0,-7.277566223E0,1.091515947E1
4.179263708E0,-6.802154846E0,-4.893923035E0,-1.206191711E0,8.466090696E0
4.189304708E0,-3.090323639E0,-3.784579926E0,5.654042358E0,7.472706364E0
4.199345708E0,1.114282837E0,-6.587800598E-1,1.202509369E1,1.209456471E1
4.209386708E0,1.039483383E1,4.565505981E0,1.495285538E1,1.877456522E1
4.219427708E0,2.328078735E1,7.810009003E0,1.648476974E1,2.957598576E1
4.229468708E0,2.730576736E1,9.789792023E0,1.723920090E1,3.374366617E1
4.239508708E0,1.479478409E1,9.206754456E0,1.861214584E1,2.549631222E1
4.249549708E0,2.170935516E0,3.568728790E0,2.037817337E1,2.080189261E1
4.259590708E0,-2.369722137E0,-7.276368713E-1,2.145548309E1,2.159821273E1
4.269631708E0,-1.586999817E0,-2.561922455E0,2.169333847E1,2.190166544E1
4.279672708E0,6.881190491E-1,-5.364544373E0,1.934427338E1,2.008613344E1
4.289713708E0,-1.120869141E0,-5.659131775E0,1.175475586E1,1.309413630E1
4.299754708E0,-5.199587402E0,-1.562600555E0,-6.915469208E0,8.792106916E0
4.309795708E0,8.586444397E0,-3.045716400E0,-1.580533264E1,1.824313448E1
4.319835708E0,2.371069336E0,-5.006039886E0,-7.954308929E0,9.692958046E0
4.329876708E0,-5.818550262E0,-4.355941772E0,-3.629053345E0,8.124025114E0
4.339917708E0,-1.603764954E0,-4.070335693E0,2.280507660E0,4.933600092E0
4.349958708E0,6.955436096E0,3.809577942E-1,8.622369690E0,1.108460550E1
4.359999708E0,1.563693283E1,6.652466125E0,1.196596664E1,2.078348699E1
4.370040708E0,2.075628708E1,8.772357788E0,1.352302872E1,2.628022108E1
4.380081708E0,2.554752365E1,5.704337769E0,1.838042770E1,3.198523967E1
4.390122708E0,1.860975082E1,2.322719879E0,2.541055847E1,3.158186719E1
4.400162708E0,6.575975189E0,-7.291337585E-1,2.761756897E1,2.839903522E1
4.410203708E0,3.491788788E0,-2.519261169E0,2.760260010E1,2.793640632E1
4.420244708E0,5.962550812E0,-2.616409149E0,2.443054642E1,2.528337808E1
4.430285708E0,7.231162720E0,-4.195774841E0,1.904444687E1,2.079868259E1
4.440326708E0,6.587351532E0,-8.060438232E0,1.492755798E1,1.819878710E1
4.450367708E0,-8.619076538E-1,-1.001013382E1,6.615642700E0,1.202964639E1
4.460408708E0,-1.333756439E1,-6.867568817E0,-1.986713608E1,2.489492361E1
4.470449708E0,9.361532593E-1,-9.892179108E0,-2.934871902E1,3.098513997E1
4.480489708E0,-1.133951935E1,-1.099837875E1,-1.461276260E1,2.151933701E1
4.490530708E0,-1.040920395E1,-8.191116486E0,-9.746082916E0,1.644481828E1
4.500571708E0,-1.353784790E0,-4.968617706E0,-4.462370453E0,6.814150367E0
4.510612708E0,4.242777100E0,6.668632507E-1,4.499044189E0,6.219908579E0
4.520653708E0,1.319326447E1,6.472689972E0,1.105496109E1,1.838940204E1
4.530694708E0,2.515084854E1,8.059091034E0,1.280871414E1,2.935263683E1
4.540735708E0,3.149690186E1,9.015601959E0,1.283356247E1,3.518573903E1
4.550776708E0,2.225122833E1,9.607920227E0,1.324909836E1,2.762187359E1
4.560816708E0,1.022972717E1,6.901398468E0,1.637624542E1,2.050507335E1
4.570857708E0,4.907844086E0,3.802542572E0,1.906196045E1,2.004755845E1
4.580898708E0,3.922293549E0,2.556084595E0,1.782897446E1,1.843340135E1
4.590939708E0,4.259392548E0,2.055974579E0,1.372406067E1,1.451617366E1
4.600980708E0,3.445085907E0,1.760339355E-1,7.682025146E0,8.420992531E0
4.611021708E0,-4.981940002E0,-2.552791443E0,-5.898783417E0,8.132165526E0
4.621062708E0,-1.013692017E1,-3.975882111E0,-2.687346634E1,2.899565454E1
4.631103708E0,2.522254944E-1,-5.289550323E0,-3.211766098E1,3.255129962E1
4.641143708E0,-6.305936737E0,-4.196523285E0,-2.411679886E1,2.527836294E1
4.651184708E0,-5.620811462E0,-3.799099731E0,-1.798524948E1,1.922227560E1
4.661225708E0,3.307072906E0,1.252894592E-1,-1.106528961E1,1.154959146E1
4.671266708E0,1.080483124E1,7.080875244E0,-4.294419708E0,1.361342032E1
4.681307708E0,1.762090714E1,1.280946259E1,1.620530090E0,2.184501815E1
4.691348708E0,2.347358643E1,1.418061127E1,5.398823090E0,2.795078329E1
4.701389708E0,2.691163696E1,1.186507645E1,9.025631104E0,3.076488680E1
4.711429708E0,2.039838135E1,7.105723572E0,1.282712585E1,2.512211032E1
4.721470708E0,8.503217468E0,3.016976166E0,1.710522949E1,1.933896917E1
4.731511708E0,2.285148010E0,5.906716919E-1,2.035107971E1,2.048748984E1
4.741552708E0,2.185305634E0,-1.748663635E0,1.855885666E1,1.876871188E1
4.751593708E0,1.715283051E0,-3.103496246E0,1.244437180E1,1.293971693E1
4.761634708E0,-2.384541321E0,-2.751578064E0,2.547552338E0,4.443786906E0
4.771675708E0,-8.616980896E0,-2.336491241E0,-1.377450577E1,1.641488837E1
4.781716708E0,-3.247347107E0,-4.479734344E0,-3.039668976E1,3.089614913E1
4.791756708E0,1.977238312E0,-4.605173492E0,-3.302342743E1,3.340155466E1
4.801797708E0,-3.506607971E0,-5.031187592E0,-2.429732346E1,2.505931115E1
4.811838708E0,-3.952979736E0,-7.643555145E0,-1.323652451E1,1.578782965E1
4.821879708E0,-7.216493225E-1,-7.722141724E0,-1.937121735E0,7.994040978E0
4.831920708E0,6.193221130E0,-4.027973785E0,6.618786163E0,9.919117454E0
4.841961708E0,1.483205658E1,3.658691711E0,1.373109604E1,2.054066518E1
4.852002708E0,2.154095535E1,9.547895050E0,1.765383865E1,2.944202908E1
4.862043708E0,2.752266632E1,1.155641830E1,1.822699677E1,3.497529666E1
4.872083708E0,2.556264221E1,8.525820465E0,1.570683746E1,3.119043178E1
4.882124708E0,1.271860153E1,1.404080200E0,1.285332138E1,1.813676202E1
4.892165708E0,1.002016296E0,-3.953728180E0,1.359353210E1,1.419225557E1
4.902206708E0,-2.728076935E0,-6.492149506E0,1.535836212E1,1.689584848E1
4.912247708E0,-1.287173309E0,-5.852080536E0,1.530567169E1,1.643676512E1
4.922288708E0,-1.028810577E0,-3.516337738E0,1.125225082E1,1.183369050E1
4.932329083E0,-6.404431915E0,-1.776805115E0,-4.429738312E0,7.987262740E0
4.942370083E0,-5.385351105E0,-1.803898773E0,-2.437381439E1,2.502676338E1
4.952410083E0,-3.574117584E0,-5.007985840E0,-2.654594742E1,2.724961583E1
4.962451083E0,-1.315988388E1,-9.725725250E0,-1.559906158E1,2.260758717E1
4.972492083E0,-1.486214401E1,-1.248957779E1,-5.174439697E0,2.009098564E1
4.982533083E0,-9.247918854E0,-1.156090897E1,3.221001892E0,1.515102216E1
4.992574083E0,1.969903564E-1,-7.386389923E0,9.760453033E0,1.224189547E1
5.002615083E0,1.152782776E1,2.401007080E-1,1.491049347E1,1.884864124E1
5.012656083E0,2.501163803E1,8.541537781E0,1.922182800E1,3.268055349E1
5.022697083E0,3.473436951E1,1.441307785E1,2.158466446E1,4.336024652E1
5.032737083E0,2.850013367E1,1.203901474E1,1.636771317E1,3.500139325E1
5.042778083E0,1.217912338E1,5.172194366E0,1.212957642E1,1.795018844E1
5.052819083E0,-2.510279846E-1,-1.612446899E0,1.294103897E1,1.304352290E1
5.062860083E0,-3.890409851E0,-4.071533203E0,1.611967896E1,1.707503210E1
5.072901083E0,-9.425898743E-1,-4.592899017E0,1.680001419E1,1.744200888E1
5.082942083E0,-5.611530762E0,-3.338956604E0,8.487350464E0,1.070854923E1
5.092983083E0,-9.357341309E0,-3.574566650E-1,-1.360191467E1,1.651362148E1
5.103024083E0,3.698808289E-1,-1.144370270E0,-2.116269196E1,2.119683764E1
5.113064083E0,-7.494016113E0,-4.940476227E0,-1.001163071E1,1.344623859E1
5.123105083E0,-1.354218887E1,-1.039094193E1,-3.220253448E0,1.737045152E1
5.133146083E0,-9.123228149E0,-1.212568451E1,5.214855652E0,1.604556749E1
5.143187083E0,1.171912994E0,-9.592352600E0,1.300450699E1,1.620196934E1
5.153228083E0,1.422716446E1,-1.467398529E0,1.991563522E1,2.451933917E1
5.163269083E0,2.936159225E1,6.336173859E0,2.931743408E1,4.197335036E1
5.173310083E0,4.043526443E1,1.074645264E1,3.492387543E1,5.449930210E1
5.183351083E0,3.559687592E1,9.551188202E0,2.838622055E1,4.652032124E1
5.193391083E0,1.908306656E1,6.282435608E-1,1.951521790E1,2.730204844E1
5.203432083E0,5.832770691E0,-6.027665405E0,1.601923782E1,1.808231027E1
5.213473083E0,1.133742371E0,-8.419092407E0,1.845033234E1,2.031209620E1
5.223514083E0,3.452420654E0,-1.200323914E1,1.964424957E1,2.327860605E1
5.233555083E0,3.378474426E0,-1.213481552E1,1.565908676E1,2.009663741E1
5.243596083E0,1.553918610E0,-2.542911987E0,1.040486298E0,3.156529131E0
5.253637083E0,1.014275803E1,3.915856934E-1,-8.800499268E0,1.343419767E1
5.263678083E0,6.380182343E0,-6.339467010E0,8.967851257E-1,9.038793739E0
5.273718083E0,-4.297114105E0,-9.612261200E0,7.297175446E0,1.281052397E1
5.283759083E0,-4.240382080E0,-7.934699707E0,1.194096863E1,1.495082043E1
5.293800083E0,1.923200684E0,-4.199367371E0,1.833881424E1,1.891151752E1
5.303841083E0,8.828491058E0,-1.533710632E0,2.188374252E1,2.364725586E1
5.313882083E0,1.708771591E1,1.577120361E0,2.600826553E1,3.115938414E1
5.323923083E0,2.046424438E1,4.803061981E0,2.795332077E1,3.497488877E1
5.333964083E0,1.173394913E1,4.035009155E0,2.123529099E1,2.459480523E1
5.344004083E0,-2.794838104E0,4.670288086E-1,1.423405014E1,1.451335314E1
5.354045083E0,-1.022748184E1,-1.370100861E0,1.123309067E1,1.525322547E1
5.364086083E0,-9.274713135E0,-1.262624359E0,9.953551483E0,1.366337115E1
5.374127083E0,-5.176535339E0,-2.739303589E-1,5.081333313E0,7.258891389E0
5.384168083E0,-4.945116577E0,4.619393921E0,-5.377118225E0,8.643285172E0
5.394209083E0,-5.413043518E0,1.152767807E1,-1.958108093E1,2.335823479E1
5.404250083E0,6.723268890E0,9.622739410E0,-3.021856018E1,3.241852615E1
5.414291083E0,4.574487305E0,5.846242676E0,-2.913556229E1,3.006635125E1
5.424331083E0,-7.830216980E0,5.777834930E0,-2.262949173E1,2.463309908E1
5.434372083E0,-8.249345398E0,5.406457214E0,-1.644929352E1,1.917969594E1
5.444413083E0,-3.716621246E0,9.089697876E0,-9.447453918E0,1.362682158E1
5.454454083E0,4.708309021E0,1.713501755E1,-4.391268311E0,1.830465071E1
5.464495083E0,1.336166428E1,2.115580627E1,-2.148033142E0,2.511406494E1
5.474536083E0,1.491453506E1,1.927406937E1,-4.860392761E-1,2.437558903E1
5.484577083E0,1.047132477E1,1.539174271E1,2.077829132E0,1.873157121E1
5.494618083E0,5.132826233E-1,1.143142822E1,5.301675110E0,1.261145389E1
5.504658083E0,-2.509381714E0,7.038962402E0,8.643475800E0,1.142600815E1
5.514699083E0,-2.183359680E0,5.897585907E0,9.566606140E0,1.144851659E1
5.524740083E0,-1.562001801E0,8.140821075E0,7.389234009E0,1.110466553E1
5.534781083E0,-2.456691284E0,1.154294632E1,2.261347504E0,1.201618219E1
5.544822083E0,-5.043911133E0,1.370325394E1,-6.494394836E0,1.598115679E1
5.554863083E0,1.768871613E0,1.245649658E1,-1.145088776E1,1.701223220E1
5.564904083E0,3.055595856E0,1.056158707E1,-7.914491730E0,1.354706488E1
5.574944083E0,-1.065424438E1,9.506281586E0,-2.799179077E-1,1.428147986E1
5.584985083E0,-1.799288361E1,8.574768677E0,6.775061188E0,2.105165011E1
5.595026083E0,-1.595591949E1,9.917027435E0,1.212583420E1,2.236011304E1
5.605067083E0,-6.798412628E0,1.508218643E1,1.462982712E1,2.208444256E1
5.615108083E0,2.415227509E0,2.039224411E1,1.331136887E1,2.447181000E1
5.625149083E0,1.096529755E1,2.237112900E1,9.375004578E0,2.661946419E1
5.635190083E0,1.550430862E1,2.153856033E1,7.490124207E0,2.757526297E1
5.645231083E0,1.429886536E1,1.800096680E1,1.067714676E1,2.534746179E1
5.655271083E0,8.161478119E0,8.679700470E0,1.524310181E1,1.934681054E1
5.665312083E0,9.270222473E-1,-3.785627747E-1,1.932855606E1,1.935447647E1
5.675353083E0,1.465602264E0,-3.885320435E0,2.344394806E1,2.380887241E1
5.685394083E0,7.509883118E0,-5.353916473E0,2.560096252E1,2.721161605E1
5.695435083E0,1.284194504E1,-8.157286835E0,2.657274170E1,3.061972375E1
5.705476083E0,1.050725006E1,-1.122126526E1,2.298979248E1,2.765591539E1
5.715517083E0,4.843477936E0,-8.794212341E0,1.359922028E1,1.690373454E1
5.725558083E0,2.453398132E-1,-1.376687164E1,1.350042572E1,1.928337214E1
5.735598083E0,-1.724144623E1,-2.051109695E1,1.983345612E1,3.333674471E1
5.745639083E0,-2.202729401E1,-2.180365906E1,2.099369339E1,3.743442789E1
5.755680083E0,-1.430575104E1,-2.308783859E1,2.188284439E1,3.487924429E1
5.765721083E0,-7.388036499E0,-2.262589920E1,2.471510468E1,3.431254577E1
5.775762083E0,4.143383789E0,-2.028611481E1,2.675087128E1,3.382755086E1
5.785803083E0,1.741119324E1,-1.217163895E1,2.924558350E1,3.614695836E1
5.795844083E0,2.663411407E1,-2.935395813E0,3.016736664E1,4.034925763E1
5.805885083E0,2.719649460E1,-2.369123383E0,2.308379700E1,3.575085660E1
5.815925083E0,1.269854324E1,-8.666378174E0,1.396281418E1,2.076822792E1
5.825966083E0,3.870950317E-1,-1.250739075E1,1.390353745E1,1.870542754E1
5.836007083E0,-1.247206421E0,-1.133966904E1,2.156280991E1,2.439463852E1
5.846048083E0,6.248156891E0,-1.311138474E1,2.817545883E1,3.169864910E1
5.856089083E0,1.300600388E1,-1.578138245E1,3.040043198E1,3.663870130E1
5.866130083E0,5.365741882E0,-1.090781708E1,2.440479996E1,2.726473767E1
5.876171083E0,-7.624544678E0,-9.525292053E0,1.687740326E0,1.231719683E1
5.886212083E0,-1.593196930E1,-1.799961960E1,-2.854713593E0,2.420667968E1
5.896252083E0,-2.495819916E1,-1.826726303E1,1.574575653E0,3.096907962E1
5.906293083E0,-1.411280228E1,-1.661859146E1,1.972897339E-1,2.180338720E1
5.916334083E0,1.146316223E0,-1.423150543E1,5.254223785E0,1.521369959E1
5.926374625E0,9.740394745E0,-4.604724426E0,1.285900955E1,1.677596207E1
5.936415625E0,2.191667404E1,3.012186127E0,2.067620361E1,3.028067473E1
5.946456625E0,3.069352249E1,4.678520966E0,2.371114243E1,3.906659899E1
5.956497625E0,1.602687195E1,5.352868652E0,1.788630524E1,2.460556324E1
5.966538625E0,-2.954855347E-1,2.511627045E0,1.395532974E1,1.418262353E1
5.976578625E0,-7.429649963E0,-2.445464630E0,1.323996735E1,1.537779995E1
5.986619625E0,-8.713530121E0,-2.704276428E0,1.364218094E1,1.641181949E1
5.996660625E0,-6.976991272E0,-1.694626007E0,1.268581970E1,1.457670011E1
6.006701625E0,-5.436694336E0,-9.014254761E-1,7.799680481E0,9.550142868E0
6.016742625E0,-3.406316528E0,3.355871429E0,-3.782184906E0,6.096703044E0
6.026783625E0,5.353168030E0,7.260501709E0,-1.053748718E1,1.387119062E1
6.036824625E0,4.490511932E0,6.597530365E0,-8.208480377E0,1.144863548E1
6.046865625E0,3.604504395E-1,5.876330109E0,-2.863694916E0,6.546902217E0
6.056905625E0,3.149750061E0,7.899672546E0,6.721472626E0,1.083992371E1
6.066946625E0,8.634045410E0,1.326556412E1,1.956461517E1,2.516537499E1
6.076987625E0,1.546194672E1,2.184212906E1,3.131847290E1,4.119462517E1
6.087028625E0,2.676299606E1,2.842469055E1,3.254337570E1,5.082609855E1
6.097069625E0,2.685954529E1,3.199117401E1,1.774754379E1,4.538552300E1
6.107110625E0,9.193581848E0,2.951921448E1,1.019380188E-1,3.091789711E1
6.117151625E0,-9.401499481E0,1.775921951E1,-6.173162842E0,2.102108488E1
6.127191625E0,-1.723216553E1,7.142397308E0,6.008505249E-1,1.866339705E1
6.137232625E0,-1.163710052E1,2.924618225E0,1.213032486E1,1.706224726E1
6.147273625E0,-1.407523041E0,2.817441101E0,1.812550781E1,1.839709567E1
6.157314625E0,4.591252441E0,5.443729706E0,1.712334183E1,1.854515105E1
6.167355625E0,4.451143799E0,7.114854584E0,1.115869537E1,1.396246108E1
6.177396625E0,1.385668488E0,5.392985229E0,-3.528163147E-1,5.579323095E0
6.187437625E0,-1.804347839E0,7.377258911E0,-1.597328339E1,1.768687090E1
6.197478625E0,6.463409271E0,2.558329926E0,-2.633473663E1,2.723672273E1
6.207518625E0,4.249213715E0,-7.689359894E0,-2.126942001E1,2.301239450E1
6.217559625E0,-1.971729767E1,-8.917406158E0,-9.187444611E0,2.350959588E1
6.227600625E0,-2.479878067E1,-1.074286011E1,-5.484594727E-1,2.703126660E1
6.237641625E0,-1.591655136E1,-1.204664886E1,6.902446289E0,2.112112973E1
6.247682625E0,-4.139791260E0,-1.172167465E1,1.409828247E1,1.879619900E1
6.257723625E0,6.270460510E0,-1.237940689E1,1.932616104E1,2.379220231E1
6.267764625E0,2.181009567E1,-7.584877167E0,2.076257401E1,3.105310152E1
6.277804625E0,3.630520294E1,4.801714783E0,1.945923431E1,4.147030294E1
6.287845625E0,4.144716019E1,1.280497192E1,1.529130157E1,4.599628569E1
6.297886625E0,3.677702179E1,6.986870728E0,1.330702789E1,3.972961975E1
6.307927625E0,2.187176743E1,-4.911137238E0,1.561537766E1,2.731910501E1
6.317968625E0,1.108864105E1,-1.062340851E1,2.163286423E1,2.652914592E1
6.328009625E0,9.076076202E0,-1.112217133E1,2.698812790E1,3.056856067E1
6.338050625E0,1.418031189E1,-9.758058014E0,2.468082596E1,3.009059839E1
6.348091625E0,1.777448776E1,-6.383774872E0,1.544997162E1,2.440054548E1
6.358131625E0,1.540087372E1,-4.279600525E0,2.134710846E0,1.612634126E1
6.368172625E0,1.186417831E1,-4.025728455E0,-1.283715500E1,1.793760756E1
6.378213625E0,1.339250015E1,-4.730762329E0,-2.167926773E1,2.591775110E1
6.388254625E0,6.588848419E0,-6.814579010E0,-2.487482254E1,2.661969585E1
6.398295625E0,-4.689597931E0,-7.573051758E0,-2.651556061E1,2.797174281E1
6.408336625E0,-1.040381516E1,-8.765921173E0,-2.389660675E1,2.749779187E1
6.418377625E0,-8.475974121E0,-8.729397125E0,-1.726764175E1,2.112382454E1
6.428418625E0,-3.054248657E0,-6.908433838E0,-1.076800781E1,1.315313214E1
6.438458625E0,2.990630951E0,-3.806434479E0,-4.777315521E0,6.801144059E0
6.448499625E0,8.052205353E0,-2.658621368E0,1.136586456E0,8.555589249E0
6.458540625E0,1.111289062E1,-2.101030884E0,6.869664459E0,1.323264745E1
6.468581625E0,1.277353729E1,-7.849676514E-1,1.262848892E1,1.797938157E1
6.478622625E0,1.422551788E1,-4.722679138E-1,1.706571167E1,2.222221660E1
6.488663625E0,1.421593781E1,-1.199006653E-1,1.900837189E1,2.373658496E1
6.498704625E0,1.378468460E1,1.975891113E-1,1.747526001E1,2.225851036E1
6.508745625E0,1.437460785E1,9.906399536E-1,1.238240067E1,1.899827794E1
6.518785625E0,1.454181015E1,3.443289642E0,5.014721832E0,1.576286526E1
6.528826625E0,1.012150223E1,3.730392609E0,-2.219135284E0,1.101295591E1
6.538867625E0,4.878355408E-1,1.931134186E0,-5.978268127E0,6.301345298E0
6.548908625E0,-9.029523010E0,-4.334985352E-1,-4.809348907E0,1.023963103E1
6.558949625E0,-1.429452438E1,-2.519261169E0,-1.808688812E0,1.462707966E1
6.568990625E0,-1.717708008E1,-4.536466370E0,-5.222639465E-1,1.777369874E1
6.579031625E0,-1.800096680E1,-6.391109619E0,-3.405268707E0,1.940301375E1
6.589071625E0,-1.805934540E1,-3.576362915E0,-1.353395599E1,2.284947029E1
6.599112625E0,-5.083279266E0,3.551963654E0,-2.720173370E1,2.789965036E1
6.609153625E0,2.846735184E1,5.465883636E0,-2.616873184E1,3.905212582E1
6.619194625E0,4.963468414E1,4.864733734E0,2.741099854E0,4.994778406E1
6.629235625E0,2.613310593E1,1.370849304E1,4.886423630E1,5.708393466E1
6.639276625E0,-1.976639557E0,2.249132904E1,8.475614868E1,8.771186764E1
6.649317625E0,8.487350464E-2,2.519111481E0,7.048991547E1,7.053496515E1
6.659358625E0,9.254804535E0,-6.628515930E0,5.729126221E1,5.841127764E1
6.669398625E0,1.850152588E-1,7.586224365E0,3.768623108E1,3.844264616E1
6.679439625E0,2.920576630E0,1.341285782E1,2.248833527E1,2.634691150E1
6.689480625E0,9.651928711E0,1.784169800E1,1.278985336E1,2.398053928E1
6.699521625E0,7.799530792E0,2.596425705E1,1.983974304E0,2.718292624E1
6.709562625E0,6.331832886E-1,2.461556168E1,-6.534212036E0,2.547592441E1
6.719603625E0,-5.626649323E0,2.022085052E1,-6.931036835E0,2.210387410E1
6.729644625E0,-3.923041992E0,1.633523071E1,-2.823728027E0,1.703535914E1
6.739684625E0,-3.411106567E0,1.463446747E1,-1.101409607E0,1.506706306E1
6.749725625E0,-6.131399689E0,1.254181915E1,-3.400478668E0,1.436852619E1
6.759766625E0,-1.054886353E1,8.706794128E0,-8.957971802E0,1.635029188E1
6.769807625E0,-1.435574707E1,7.761659546E0,-1.782807632E1,2.416963256E1
6.779848625E0,-6.067033539E0,1.141316620E1,-2.480656448E1,2.797203783E1
6.789889625E0,7.596103821E0,1.520927216E1,-1.884057083E1,2.537695533E1
6.799930625E0,1.022598495E1,1.135074600E1,-7.565866699E0,1.704853489E1
6.809971625E0,1.471140747E0,4.100722504E0,-6.800358582E-1,4.409379652E0
6.820011625E0,-9.996811523E0,2.301464081E0,4.703668671E0,1.128527698E1
6.830052625E0,-1.202718933E1,4.036056976E0,1.027807663E1,1.632733592E1
6.840093625E0,-5.620212708E0,4.985682220E0,1.502440659E1,1.679811333E1
6.850134625E0,2.670297089E0,5.774990845E0,1.804946594E1,1.913803090E1
6.860175625E0,1.056727524E1,8.920100555E0,1.808374466E1,2.276526566E1
6.870216625E0,1.706945389E1,1.291948380E1,1.203482346E1,2.455842611E1
6.880257625E0,1.787208481E1,1.401281021E1,3.088976440E0,2.291968675E1
6.890297625E0,1.374456802E1,1.171523804E1,-1.230590973E0,1.810177634E1
6.900338625E0,6.382876740E0,8.780291290E0,2.884801025E0,1.123195030E1
6.910379625E0,-3.068618774E-2,7.094945984E0,1.148995651E1,1.350401055E1
6.920420625E0,1.557810516E0,6.253994751E0,1.239512421E1,1.397062375E1
6.930461833E0,5.995332642E0,5.043761444E0,4.999603271E0,9.294061322E0
6.940502833E0,5.729036407E0,4.160747681E0,-5.048102417E0,8.695804588E0
6.950543833E0,1.239123230E0,2.232307892E0,-1.460557755E1,1.482705366E1
6.960584833E0,-1.566492462E0,6.999444580E-1,-2.325983093E1,2.332302630E1
6.970624833E0,3.154989166E0,1.724114685E0,-2.722373795E1,2.746012447E1
6.980665833E0,-6.746470642E-1,-3.418890381E0,-3.151606201E1,3.170813973E1
6.990706833E0,-1.094434113E1,-1.809631851E1,-3.545137848E1,4.128020812E1
7.000747833E0,-1.995215927E1,-2.072066116E1,-2.793910034E1,4.010022178E1
7.010788833E0,-1.941941711E1,-2.332404739E1,-1.758019180E1,3.507403729E1
7.020829833E0,-3.562741241E0,-2.883169418E1,-7.162156219E0,2.992083215E1
7.030870833E0,8.223748627E0,-3.367367523E1,5.173691254E0,3.504730412E1
7.040911833E0,1.100646194E1,-3.589071487E1,2.150982010E1,4.326612970E1
7.050951833E0,1.020487885E1,-3.228306702E1,3.860801422E1,5.135089805E1
7.060992833E0,1.836051910E1,-2.541609695E1,4.697905655E1,5.648113314E1
7.071033833E0,2.667243439E1,-1.511691422E1,4.974036438E1,5.842981859E1
7.081074833E0,3.275997528E1,-1.378064301E1,4.537364502E1,5.763583750E1
7.091115833E0,2.142734161E1,-2.299637878E1,3.217678802E1,4.498121934E1
7.101156833E0,8.801696777E-1,-2.916295532E1,2.271406586E1,3.697541683E1
7.111197833E0,-4.395160217E0,-2.785138275E1,2.385948395E1,3.693632262E1
7.121237833E0,3.731290741E0,-2.679577789E1,2.470627304E1,3.663790620E1
7.131278833E0,1.118818405E1,-2.314831284E1,1.760728546E1,3.116145617E1
7.141319833E0,1.417432434E1,-1.282802399E1,6.101012878E0,2.006718785E1
7.151360833E0,1.595861389E1,-7.276668091E0,1.298100586E0,1.758727725E1
7.161401833E0,4.398603058E0,-1.155402328E1,-9.134005737E-1,1.239667147E1
7.171442833E0,-1.092533066E1,-1.421369247E1,-5.917793884E0,1.887888207E1
7.181483833E0,-1.611668518E1,-1.179337555E1,-7.174730072E0,2.122046182E1
7.191524833E0,-1.148890869E1,-9.905202026E0,-3.080743561E0,1.547898676E1
7.201564833E0,-1.403930511E0,-8.171806641E0,3.156486053E0,8.872026198E0
7.211605833E0,6.930138702E0,-4.611909485E0,1.042836411E1,1.334343694E1
7.221646833E0,1.079061081E1,1.751358032E-2,1.876303207E1,2.164460582E1
7.231687833E0,1.429946411E1,4.024381256E0,2.480791168E1,2.891544225E1
7.241728833E0,1.347812210E1,6.458918610E0,2.260120056E1,2.709597150E1
7.251769833E0,3.881129150E0,9.864786072E0,1.421982971E1,1.773642367E1
7.261810833E0,-5.331163788E0,1.285721329E1,5.489684143E0,1.496214800E1
7.271851833E0,-1.242161911E1,1.519235733E1,-1.091380463E0,1.965440037E1
7.281891833E0,-1.637908951E1,1.950174591E1,-3.081791382E0,2.565326694E1
7.291932833E0,-1.562450867E1,2.260658936E1,-3.517086182E0,2.770474776E1
7.301973833E0,-1.177017380E1,2.419059540E1,-4.388424225E0,2.725766248E1
7.312014833E0,-8.867410126E0,2.490326340E1,-5.174140320E0,2.693650345E1
7.322055833E0,-5.715564423E0,2.596814896E1,-6.605912933E0,2.739800216E1
7.332096833E0,1.437311096E0,2.974823822E1,-5.951174469E0,3.037169765E1
7.342137833E0,1.166030228E1,3.178669922E1,-4.799170074E0,3.419632919E1
7.352177833E0,1.599259323E1,2.869323212E1,-2.973267059E0,3.298340377E1
7.362218833E0,8.676107941E0,2.315669540E1,2.569855957E0,2.486184930E1
7.372259833E0,-3.199895782E0,1.883203857E1,8.719817047E0,2.099810037E1
7.382300833E0,-9.542356567E0,1.507784546E1,1.209889023E1,2.155878330E1
7.392341833E0,-9.300459595E0,1.185654419E1,1.291080185E1,1.984351262E1
7.402382833E0,-6.292315063E0,1.057041870E1,1.064631088E1,1.626870971E1
7.412423833E0,-6.361770630E0,9.199569397E0,1.260528717E0,1.125580452E1
7.422463833E0,-5.899531860E0,8.351582794E0,-7.865244141E0,1.290021227E1
7.432504833E0,-4.992717590E0,6.905889130E0,-3.554807739E0,9.233373797E0
7.442545833E0,-6.189029846E0,2.971171417E0,1.350087479E1,1.514614043E1
7.452586833E0,-2.213746490E0,-4.787045288E-1,2.662887497E1,2.672502224E1
7.462627833E0,5.888754272E0,-2.815944214E0,3.153103088E1,3.219957884E1
7.472668833E0,8.089777222E0,-4.376898193E0,3.116668854E1,3.249560290E1
7.482709833E0,7.196884003E0,-6.973398743E0,2.537343567E1,2.728066471E1
7.492750833E0,5.372777252E0,-8.447233887E0,1.870764725E1,2.121788305E1
7.502790833E0,4.655319214E-1,-1.120704483E1,1.433119812E0,1.130789132E1
7.512831833E0,-2.020797729E0,-7.012018433E0,-2.362716705E1,2.472842593E1
7.522872833E0,6.444398804E0,5.387297058E-1,-2.362058075E1,2.448984158E1
7.532913833E0,1.036923706E1,3.945495300E0,-1.361074631E1,1.755962487E1
7.542954833E0,1.424063644E1,6.427184601E0,-4.852758636E0,1.636012514E1
7.552995833E0,1.275916718E1,7.712711334E0,7.739056549E0,1.679807309E1
7.563036833E0,7.217391357E0,5.656587067E0,1.554771835E1,1.805046429E1
7.573076833E0,5.511089630E0,1.142424316E0,1.354727829E1,1.466990086E1
7.583117833E0,3.482508087E0,2.400408325E0,9.895921326E0,1.076192741E1
7.593158833E0,4.347559204E0,5.017416229E0,9.754315796E0,1.179925478E1
7.603199833E0,6.104904785E0,4.174519043E0,1.039902512E1,1.276072862E1
7.613240833E0,6.108647003E0,2.819686432E0,9.689051514E0,1.179592807E1
7.623281833E0,5.045857086E0,1.828747101E0,7.822582855E0,9.486716620E0
7.633322833E0,3.580703888E0,2.300565948E0,5.519621887E0,6.969954791E0
7.643363833E0,2.414628754E0,3.495680695E0,2.757116547E0,5.064771188E0
7.653403833E0,1.858235779E0,4.145329742E0,3.929328918E-1,4.559736302E0
7.663444833E0,2.208956451E0,4.715793457E0,-4.797523499E-1,5.229565838E0
7.673485833E0,1.877395935E0,5.122497711E0,1.027164001E0,5.551546108E0
7.683526833E0,1.493444366E0,5.364394684E0,3.420536957E0,6.535073027E0
7.693567833E0,2.873125305E0,6.277046814E0,5.305716705E0,8.706709797E0
7.703608833E0,3.642525330E0,7.147337036E0,7.727680206E0,1.113864708E1
7.713649833E0,3.439397736E0,7.232509918E0,9.312285004E0,1.228239832E1
7.723690833E0,2.260299683E0,6.838529205E0,1.089344696E1,1.305915859E1
7.733730833E0,1.979333954E0,6.531517639E0,1.315180069E1,1.481716393E1
7.743771833E0,2.298320618E0,6.546486511E0,1.417761749E1,1.578428336E1
7.753812833E0,1.151106262E-1,6.609505463E0,9.262738037E0,1.137968053E1
7.763853833E0,7.966433716E-1,5.805078278E0,7.964487762E0,9.887701441E0
7.773894833E0,1.093775482E0,5.903124390E0,8.601862335E0,1.048976921E1
7.783935833E0,6.418652344E-1,5.792803802E0,8.067772980E0,9.952764828E0
7.793976833E0,1.191522217E-1,5.623655548E0,7.205565948E0,9.141109321E0
7.804016833E0,7.634124756E-1,6.382277985E0,7.408843231E0,9.808528376E0
7.814057833E0,6.274951172E-1,6.162385254E0,7.886200562E0,1.002800586E1
7.824098833E0,3.736230469E-1,5.831273804E0,9.207203522E0,1.090485878E1
7.834139833E0,5.797444153E-1,5.634582825E0,1.005504044E1,1.154073071E1
7.844180833E0,7.138655090E-1,5.387446747E0,1.026400589E1,1.161395726E1
7.854221833E0,6.655160522E-1,5.014871521E0,9.876910858E0,1.109708142E1
7.864262833E0,3.535647583E-1,4.911286926E0,9.533973999E0,1.073044303E1
7.874302833E0,1.363664246E-1,4.609514465E0,9.585317230E0,1.063694156E1
7.884343833E0,1.945953369E-2,4.133204956E0,9.866432648E0,1.069720782E1
7.894384833E0,-7.723937988E-2,3.696712646E0,1.002600082E1,1.068608173E1
7.904425833E0,-2.544708252E-3,3.626358948E0,9.942324829E0,1.058301983E1
7.914466833E0,1.658551025E-1,3.752546539E0,9.927655334E0,1.061449263E1
7.924507833E0,3.275189209E-1,3.785178680E0,9.928403778E0,1.063052435E1
7.934549375E0,8.951385498E-1,3.955674133E0,9.885592804E0,1.068520360E1
7.944590375E0,1.354084167E0,4.408931580E0,9.580377502E0,1.063277267E1
7.954630375E0,1.453178101E0,4.564458160E0,9.229656830E0,1.039868117E1
7.964671375E0,1.746268616E0,4.539609833E0,8.752299500E0,1.001300445E1
7.974712375E0,2.209555206E0,4.713847504E0,8.125103760E0,9.649860289E0
7.984753375E0,2.286345520E0,5.112618256E0,7.611970825E0,9.450309048E0
7.994794375E0,2.324815521E0,5.288053436E0,7.241640930E0,9.263349271E0
8.004835375E0,2.476300507E0,5.302722931E0,7.025640106E0,9.143880663E0
8.014876375E0,2.343376923E0,5.203329620E0,7.157665558E0,9.154137358E0
8.024916375E0,1.922751617E0,5.045707397E0,7.440277863E0,9.193142640E0
8.034957375E0,1.648222504E0,5.071753235E0,7.570956116E0,9.260599052E0
8.044998375E0,1.353186035E0,5.067112885E0,7.424859924E0,9.090395499E0
8.055039375E0,1.226399689E0,5.048701172E0,7.285200348E0,8.948049163E0
8.065080375E0,1.233734436E0,5.034780121E0,7.386539612E0,9.023972460E0
8.075121375E0,1.113534393E0,4.878056030E0,7.664511566E0,9.153148476E0
8.085162375E0,7.932005310E-1,4.623285828E0,7.813302155E0,9.113266675E0
8.095203375E0,5.327421570E-1,4.456831970E0,7.842641144E0,9.036270554E0
8.105243375E0,3.778143311E-1,4.308041382E0,7.903115387E0,9.008950940E0
8.115284375E0,5.177732849E-1,4.233646088E0,7.957003326E0,9.028053517E0
8.125325375E0,6.798861694E-1,4.196373596E0,7.861651611E0,8.937413643E0
8.135366375E0,4.405339050E-1,4.165388031E0,8.027057648E0,9.054180363E0
8.145407375E0,1.522334290E-1,4.276157684E0,8.653205566E0,9.653324098E0
8.155448375E0,4.912783813E-1,4.164190521E0,9.202263794E0,1.011254152E1
8.165489375E0,1.061293030E0,3.902235260E0,9.264085236E0,1.010826682E1
8.175529375E0,1.347348175E0,3.922742615E0,9.067543945E0,9.971138848E0
8.185570375E0,1.129551086E0,3.702400818E0,8.819809113E0,9.631858089E0
8.195611375E0,5.074447632E-1,3.459605713E0,8.382418671E0,9.082472937E0
8.205652375E0,7.791297913E-1,3.496728516E0,8.337661743E0,9.074731780E0
8.215693375E0,1.279090118E0,3.746259613E0,8.612041168E0,9.478279681E0
8.225734375E0,1.827848969E0,4.317172394E0,9.223519592E0,1.034660925E1
8.235775375E0,2.671943665E0,5.378615112E0,1.007015900E1,1.172505376E1
8.245815375E0,3.448828125E0,6.135141907E0,1.062969543E1,1.274852175E1
8.255856375E0,3.518433380E0,6.112089844E0,1.044572800E1,1.260358080E1
8.265897375E0,2.859353943E0,4.875062256E0,9.436676331E0,1.099968168E1
8.275938375E0,2.923420715E0,4.912185059E0,8.958869934E0,1.062719630E1
8.285979375E0,3.689078522E0,5.449866943E0,8.631051636E0,1.085381971E1
8.296020375E0,4.083059235E0,5.697152710E0,8.118816833E0,1.072586167E1
8.306061375E0,3.771856384E0,5.826184387E0,7.410190430E0,1.015294279E1
8.316102375E0,2.701582031E0,5.818400574E0,6.697073364E0,9.273786840E0
8.326142375E0,1.517544250E0,5.683231659E0,6.410569153E0,8.700428697E0
8.336183375E0,6.976991272E-1,5.474266205E0,6.622528381E0,8.620455714E0
8.346224375E0,3.388952637E-1,5.208868103E0,7.289092255E0,8.965379123E0
8.356265375E0,1.478924561E-1,5.092110901E0,7.879015503E0,9.382449089E0
8.366306375E0,1.890568542E-1,5.016518097E0,8.631650391E0,9.985318461E0
8.376347375E0,1.818717957E-1,4.385430450E0,1.068298462E1,1.154951246E1
8.386388375E0,8.274792480E-1,3.973487091E0,1.124895767E1,1.195877796E1
8.396428375E0,2.587219849E0,5.343138885E0,7.651937714E0,9.684781385E0
8.406469375E0,2.443967743E0,5.758225708E0,7.125931549E0,9.482037865E0
8.416510375E0,1.681154022E0,5.923781433E0,7.275919647E0,9.531866136E0
8.426551375E0,1.226399689E0,6.077212372E0,7.121889954E0,9.442345202E0
8.436592375E0,8.836125183E-1,5.926475830E0,7.350464630E0,9.483312561E0
8.446633375E0,5.724096680E-1,5.607638855E0,7.560926971E0,9.430847418E0
8.456674375E0,3.095562744E-1,5.254822540E0,7.900420990E0,9.493452314E0
8.466715375E0,4.460723877E-2,5.193001099E0,8.303832092E0,9.794022546E0
8.476755375E0,-4.270619202E-1,5.314997406E0,8.499325562E0,1.003344977E1
8.486796375E0,-9.092092896E-1,5.179828491E0,8.423583069E0,9.930460032E0
8.496837375E0,-1.065334625E0,5.120551758E0,8.381520538E0,9.879517939E0
8.506878375E0,-8.181985474E-1,4.972210236E0,8.478668518E0,9.863069671E0
8.516919375E0,-2.802172852E-1,4.767136688E0,8.797056427E0,1.000961117E1
8.526960375E0,2.917433167E-1,4.681814117E0,9.339079285E0,1.045097601E1
8.537001375E0,1.187031555E-1,4.922214203E0,9.214538269E0,1.044748767E1
8.547041375E0,-6.462062073E-1,5.365741882E0,8.718320160E0,1.025757646E1
8.557082375E0,-1.147813110E0,5.630092163E0,8.189020844E0,1.000377304E1
8.567123375E0,-1.336869965E0,5.624104614E0,7.612419891E0,9.558593548E0
8.577164375E0,-1.321302338E0,5.465284882E0,7.430398407E0,9.318046962E0
8.587205375E0,-1.215023346E0,5.279970245E0,7.483687592E0,9.239044728E0
8.597246375E0,-1.134640503E0,5.353168030E0,7.503745880E0,9.287088847E0
8.607287375E0,-1.015338593E0,5.531746674E0,7.561226349E0,9.423549099E0
8.617327375E0,-8.455915833E-1,5.639073486E0,7.702083435E0,9.583123924E0
8.627368375E0,-7.683522034E-1,5.755980377E0,7.954458618E0,9.848608385E0
8.637409375E0,-9.250762939E-1,5.761069794E0,8.232131195E0,1.009027628E1
8.647450375E0,-1.179996185E0,5.637277222E0,8.470136261E0,1.024277764E1
8.657491375E0,-1.475631409E0,5.578898621E0,8.587342529E0,1.034620943E1
8.667532375E0,-1.649420013E0,5.510939941E0,8.550968170E0,1.030582855E1
8.677573375E0,-1.696272583E0,5.416785736E0,8.547525330E0,1.026056030E1
8.687614375E0,-1.663041687E0,5.345533905E0,8.486003265E0,1.016625259E1
8.697654375E0,-1.544787598E0,5.275329895E0,8.210276642E0,9.880491727E0
8.707695375E0,-1.524729309E0,5.219945068E0,7.959248657E0,9.639619555E0
8.717736375E0,-1.630259857E0,5.361700287E0,7.842042389E0,9.638630919E0
8.727777375E0,-1.758992157E0,5.553900604E0,7.744145966E0,9.690802963E0
8.737818375E0,-1.791175232E0,5.610033875E0,7.805069275E0,9.777519889E0
8.747859375E0,-1.703607330E0,5.527555389E0,7.915240173E0,9.803426621E0
8.757900375E0,-1.654060364E0,5.485642548E0,7.764204254E0,9.649407109E0
8.767940375E0,-1.563947754E0,5.548511810E0,7.830965424E0,9.723987626E0
8.777981375E0,-1.576671295E0,5.636379089E0,7.722590790E0,9.689843658E0
8.788022375E0,-1.555864563E0,5.670807495E0,7.682474213E0,9.674667034E0
8.798063375E0,-1.463506622E0,5.617069244E0,7.736960907E0,9.672325605E0
8.808104375E0,-1.468296661E0,5.613027649E0,7.800129547E0,9.721316548E0
8.818145375E0,-1.534309387E0,5.704038391E0,7.751031647E0,9.745186035E0
8.828186375E0,-1.578168182E0,5.711073761E0,7.623347168E0,9.655174797E0
8.838226375E0,-1.616937561E0,5.643564148E0,7.547604675E0,9.561937027E0
8.848267375E0,-1.731449432E0,5.624254303E0,7.482939148E0,9.519691796E0
8.858308375E0,-1.845811615E0,5.672005005E0,7.632627869E0,9.686881308E0
8.868349375E0,-2.038011932E0,5.826034698E0,7.808362427E0,9.953225444E0
8.878390375E0,-2.124232635E0,5.964496765E0,8.081544342E0,1.026639883E1
8.888431375E0,-1.795815582E0,6.059998169E0,8.133186951E0,1.030035249E1
8.898472375E0,-1.644480286E0,6.097570038E0,7.534432068E0,9.831192316E0
8.908512375E0,-2.070494385E0,6.158792725E0,5.723946991E0,8.659171091E0
8.918553375E0,-2.199376373E0,6.375991058E0,6.801556091E0,9.578709917E0
8.928594250E0,-1.994003448E0,6.561305695E0,7.895032196E0,1.045745263E1
8.938635250E0,-2.003134460E0,6.463409271E0,7.992778931E0,1.047247450E1
8.948676250E0,-2.405348053E0,6.299200745E0,7.923473053E0,1.040418447E1
8.958717250E0,-2.413131866E0,6.114634552E0,6.788982239E0,9.449986294E0
8.968758250E0,-2.252515869E0,5.956263885E0,6.099965057E0,8.818190342E0