"Time (s)","Acceleration x (m/s^2)","Acceleration y (m/s^2)","Acceleration z (m/s^2)","Absolute acceleration (m/s^2)"
-3.563333885E-4,2.202070770E0,6.027366028E0,8.030799866E0,1.027968888E1
9.683666634E-3,1.995051270E0,6.016289062E0,8.104446716E0,1.028873268E1
1.972466666E-2,1.983974304E0,6.047873383E0,8.449778595E0,1.057883192E1
2.976566664E-2,2.497256927E0,6.386768646E0,8.673862610E0,1.105725999E1
3.980666667E-2,3.089575195E0,6.697672119E0,8.600515137E0,1.133018744E1
4.984666663E-2,3.357368317E0,7.013365631E0,8.494535522E0,1.151591739E1
5.988766666E-2,3.222498779E0,6.929240570E0,8.076754303E0,1.111903023E1
6.992866663E-2,2.959046631E0,6.508315887E0,7.410040741E0,1.029673912E1
7.996966667E-2,3.056943054E0,6.044430542E0,6.702761536E0,9.529273509E0
9.000966663E-2,3.545527039E0,5.583089905E0,6.076463928E0,8.981373433E0
1.000506667E-1,3.659440155E0,5.765859833E0,5.962999878E0,9.066091187E0
1.100916666E-1,3.689377899E0,6.318959656E0,6.596332855E0,9.851516003E0
1.201326667E-1,3.515140228E0,6.760691071E0,7.166796570E0,1.046069442E1
1.301726666E-1,3.416046295E0,6.925348663E0,8.541687469E0,1.151478403E1
1.402136667E-1,3.513194275E0,6.718927917E0,1.014859589E1,1.266809081E1
1.502546666E-1,3.287763062E0,6.033652954E0,9.976902924E0,1.211416303E1
1.602956667E-1,2.853965149E0,5.477409668E0,9.689650269E0,1.149071173E1
1.703356666E-1,2.453248444E0,5.392985229E0,9.297465820E0,1.102477158E1
1.803766667E-1,2.240989838E0,5.624553680E0,8.949140167E0,1.080484842E1
1.904176666E-1,2.308200073E0,5.681435394E0,8.551417236E0,1.052298591E1
2.004586667E-1,2.194137268E0,4.986430664E0,8.166567535E0,9.816901468E0
2.104986666E-1,8.523275757E-1,3.144960022E0,7.688910828E0,8.350843404E0
2.205396667E-1,-4.769082642E-1,4.575984192E0,8.123307495E0,9.335694804E0
2.305806666E-1,-6.433621216E-1,8.125103760E0,8.894803162E0,1.206435863E1
2.406216667E-1,2.038910065E0,9.165140991E0,7.495213623E0,1.201395817E1
2.506616666E-1,3.098107452E0,7.288942566E0,4.868775330E0,9.296877257E0
2.607026667E-1,2.235301666E0,6.105952606E0,3.715872803E0,7.489121541E0
2.707436666E-1,2.118095398E0,6.377937012E0,3.688629456E0,7.666185225E0
2.807846667E-1,3.429967346E0,7.583529968E0,4.217629395E0,9.330755622E0
2.908246666E-1,5.751489716E0,8.003706207E0,4.318818970E0,1.076062936E1
3.008656666E-1,7.304809570E0,7.735913086E0,3.441194000E0,1.118241523E1
3.109066666E-1,6.410569153E0,7.885751495E0,2.793490906E0,1.053964254E1
3.209476667E-1,4.817881165E0,7.986342316E0,1.970951385E0,9.533010640E0
3.309876666E-1,2.884501648E-1,8.729546814E0,-3.248245239E-1,8.740349080E0
3.410286666E-1,-1.271306305E0,8.327183533E0,-3.915856934E-1,8.432766134E0
3.510696666E-1,2.677332458E0,5.449717255E0,-6.830296326E-1,6.110160123E0
3.611106667E-1,2.799628143E0,3.688030701E0,3.018622742E0,5.527347596E0
3.711506666E-1,1.184486847E0,6.399192810E0,7.557633820E0,9.973490195E0
3.811916666E-1,2.632276154E0,7.348967743E0,8.663085022E0,1.166127123E1
3.912326666E-1,4.647086334E0,4.874613190E0,9.768087158E0,1.186477104E1
4.012726666E-1,4.089944916E0,3.696712646E0,1.458267517E1,1.558998874E1
4.113136666E-1,2.912493439E0,3.612138519E0,1.661769333E1,1.725334444E1
4.213546666E-1,1.094523926E0,3.743565216E0,1.494851440E1,1.544895938E1
4.313956666E-1,-6.851252747E-1,3.985162811E0,8.999136200E0,9.865869025E0
4.414356666E-1,-1.631008301E0,4.945715332E0,1.247356110E0,5.355014985E0
4.514766666E-1,-1.604064331E0,6.839577026E0,-3.563190308E0,7.877129010E0
4.615176666E-1,-3.787124634E-2,5.662574615E0,-5.065017242E0,7.597406477E0
4.715586666E-1,9.680369568E-1,2.773731995E0,-4.818779297E0,5.643697249E0
4.815986666E-1,1.394200745E0,2.391127625E0,-2.133812714E0,3.494916842E0
4.916424166E-1,1.979783020E0,2.954106903E0,1.958078156E0,4.059600776E0
5.016834167E-1,4.502786407E0,3.778592377E0,6.001020813E0,8.400303362E0
5.117244166E-1,5.482948151E0,3.904031525E0,1.587658447E1,1.724442278E1
5.217644167E-1,6.238876190E0,2.552042999E0,1.922107956E1,2.036876037E1
5.318054166E-1,6.014792175E0,9.132508850E-1,2.231140320E1,2.312596949E1
5.418464167E-1,3.036136322E0,9.339079285E-1,2.548195999E1,2.567918598E1
5.518874166E-1,9.705816650E-1,4.005670166E-1,2.590572876E1,2.592699877E1
5.619274167E-1,-9.316625977E-1,4.813989258E-1,2.334724915E1,2.337078909E1
5.719684166E-1,-2.930905151E0,1.899400177E0,1.633493134E1,1.670412846E1
5.820094167E-1,-4.250560913E0,3.246299286E0,6.039490814E0,8.067290526E0
5.920504166E-1,-6.705904999E0,3.060685272E0,-3.366649017E0,8.103781944E0
6.020904167E-1,-1.100810852E1,3.262615356E0,-9.712852020E0,1.503870362E1
6.121314166E-1,-1.394919250E1,5.572611694E0,-1.313204178E1,1.995205488E1
6.221724167E-1,-1.303713913E1,5.157225494E0,-1.077624069E1,1.768308047E1
6.322134166E-1,-7.319329376E0,1.678160248E0,-3.725452881E0,8.382589308E0
6.422534166E-1,4.655319214E-2,-7.206015015E-1,3.499422913E0,3.573149094E0
6.522944166E-1,6.597979431E0,-4.459226990E-1,1.088341782E1,1.273502897E1
6.623354167E-1,1.020577698E1,4.421804810E-1,1.972822495E1,2.221612628E1
6.723764166E-1,6.280190277E0,1.595831451E0,3.501922714E1,3.561367346E1
6.824164166E-1,2.173031158E0,2.246528320E0,3.564522537E1,3.578199332E1
6.924574166E-1,1.621128845E-1,2.977608032E0,3.728237091E1,3.740143862E1
7.024984166E-1,5.727090454E-1,3.584296417E0,3.400448730E1,3.419766561E1
7.125394166E-1,7.837701416E-1,2.048490143E0,2.809836914E1,2.818384211E1
7.225794166E-1,-3.232976990E0,-1.271006927E0,1.976789246E1,2.007080394E1
7.326204166E-1,-9.982591095E0,-1.495090942E0,9.222621460E0,1.367275278E1
7.426614166E-1,-1.356075027E1,2.509381714E0,-3.721261597E-1,1.379599299E1
7.527024166E-1,-1.560624664E1,3.998335419E0,-5.079237671E0,1.689201811E1
7.627424166E-1,-1.610950012E1,3.295846252E0,-5.451214142E0,1.732323100E1
7.727834166E-1,-1.202404587E1,1.536704407E0,-2.372117157E0,1.235176422E1
7.828244166E-1,-3.548071747E0,8.089178467E-1,3.023113403E0,4.731001570E0
7.928654166E-1,5.702691193E0,1.440753937E0,8.539741516E0,1.036936082E1
8.029054166E-1,1.340267899E1,2.484383698E0,1.505524246E1,2.030921692E1
8.129464166E-1,1.628254028E1,4.125421143E0,2.593207397E1,3.089680693E1
8.229874166E-1,1.317500244E1,5.263055420E0,2.959031662E1,3.281565601E1
8.330284166E-1,8.484207001E0,5.659730530E0,3.020613602E1,3.188142047E1
8.430684166E-1,5.708379364E0,5.806575165E0,2.909664322E1,3.021450904E1
8.531094167E-1,5.288352814E0,4.883145447E0,2.557102478E1,2.656480930E1
8.631504166E-1,3.882176971E0,1.417103119E0,1.835423218E1,1.881375343E1
8.731914166E-1,-9.020242310E-1,-1.289268951E0,9.138197021E0,9.272675285E0
8.832314166E-1,-6.084098053E0,-1.380130005E-1,9.289682007E-1,6.156157781E0
8.932724167E-1,-8.607400818E0,3.028651886E0,-5.361700287E0,1.058337900E1
9.033134166E-1,-8.702153778E0,4.599185944E0,-8.047415314E0,1.271380686E1
9.133544166E-1,-7.238946533E0,4.188290405E0,-6.752009125E0,1.074866274E1
9.233944166E-1,-2.883603516E0,4.392016754E0,-2.463726654E0,5.803010377E0
9.334354167E-1,3.249891815E0,5.206622772E0,1.984123993E0,6.450384913E0
9.434764166E-1,9.368717651E0,5.978866882E0,5.730982361E0,1.250455431E1
9.535174167E-1,1.280227753E1,5.347779236E0,9.691596222E0,1.692406836E1
9.635574166E-1,9.486372986E0,4.658312988E0,1.922227707E1,2.193597703E1
9.735984167E-1,5.511538696E0,4.961133270E0,1.977822098E1,2.112268750E1
9.836394166E-1,4.352648621E0,5.182073822E0,2.038880127E1,2.148261288E1
9.936804167E-1,4.265380096E0,5.507796478E0,2.060031143E1,2.174631280E1
1.003720417E0,3.151696014E0,4.368665314E0,1.916329971E1,1.990604130E1
1.013761417E0,-3.013233948E-1,7.572752380E-1,1.339714050E1,1.342190878E1
1.023802417E0,-5.751040649E0,-2.299817505E0,5.480253754E0,8.270236412E0
1.033843417E0,-1.012554382E1,-1.637893982E0,-4.824467468E-1,1.026849986E1
1.043884417E0,-1.046713348E1,-7.613168335E-1,-2.764301605E0,1.085273468E1
1.053924417E0,-6.222260742E0,-1.863774261E0,-1.272952881E0,6.618957039E0
1.063965417E0,2.634222107E0,-3.745211792E-1,1.576222229E0,3.092550523E0
1.074006417E0,1.407882294E1,3.919599152E0,3.736529846E0,1.508436834E1
1.084047417E0,2.401920181E1,5.238805847E0,5.310506744E0,2.515091697E1
1.094087417E0,2.810166229E1,2.634222107E0,8.975635071E0,2.961763959E1
1.104128417E0,2.357537476E1,-5.553451538E-2,1.160955780E1,2.627894997E1
1.114169417E0,1.725641510E1,2.336640930E-1,1.493893433E1,2.282564829E1
1.124210417E0,1.533650757E1,3.538491669E0,1.997371445E1,2.542987724E1
1.134250417E0,1.867082382E1,6.689439240E0,2.517734344E1,3.205069239E1
1.144291417E0,2.123574005E1,5.042414246E0,2.689247681E1,3.463506757E1
1.154332417E0,1.499012787E1,-1.504970398E0,2.057052338E1,2.549735871E1
1.164373417E0,4.300107880E0,-6.068680115E0,8.929980011E0,1.162171885E1
1.174413417E0,-2.900518341E0,-6.164929962E0,-2.370021515E0,7.213623920E0
1.184454417E0,-3.322041779E0,-2.299817505E0,-1.028211823E1,1.104749190E1
1.194495417E0,2.978805542E0,7.104226685E-1,-1.135089569E1,1.175673491E1
1.204536417E0,1.206580902E1,1.689237213E0,-8.673712921E0,1.495561986E1
1.214576417E0,2.102393051E1,2.292033691E0,-6.141279144E0,2.202213391E1
1.224617417E0,2.611664017E1,4.828958130E-1,-3.837420044E0,2.640147486E1
1.234658417E0,2.499756729E1,-3.057242432E0,-1.084943848E0,2.520718558E1
1.244699417E0,1.914698364E1,-4.557273102E0,7.269782410E0,2.098155040E1
1.254739417E0,1.430081131E1,-1.013991394E0,1.951881042E1,2.421828530E1
1.264780417E0,1.728365845E1,3.100352783E0,2.428010925E1,2.996432449E1
1.274821417E0,2.288007065E1,5.809269562E0,2.757715302E1,3.630075225E1
1.284862417E0,2.543570618E1,5.113815765E0,2.525548096E1,3.620725865E1
1.294902417E0,1.970128098E1,-5.123844910E-1,1.816023560E1,2.679920086E1
1.304943417E0,8.825796661E0,-5.033432922E0,8.195756836E0,1.305375669E1
1.314984417E0,9.629475403E-1,-5.194048920E0,-2.933150482E0,6.042249904E0
1.325025417E0,-1.105750580E0,-2.317181396E-1,-1.361029724E1,1.365710689E1
1.335065417E0,1.634301453E0,5.489534454E0,-1.832010315E1,1.919458541E1
1.345106417E0,6.537355499E0,6.184389496E0,-1.793809753E1,2.006885730E1
1.355147417E0,1.215457443E1,3.864513702E0,-1.511556702E1,1.977747486E1
1.365188417E0,1.588002731E1,1.516197052E0,-1.057056839E1,1.913664122E1
1.375228417E0,1.481544113E1,-1.224902802E0,-5.244044952E0,1.576380951E1
1.385269417E0,1.156614807E1,-3.171903992E0,8.478369141E-1,1.202312703E1
1.395310417E0,8.259823608E0,-1.081351318E0,1.672726547E1,1.868677117E1
1.405351417E0,9.092991028E0,3.752546539E0,2.218057526E1,2.426400647E1
1.415391417E0,1.261217285E1,4.983586578E0,2.645343979E1,2.972688204E1
1.425432417E0,1.323637482E1,3.740421753E0,2.582504654E1,2.925962067E1
1.435473417E0,6.429579620E0,1.575324097E0,2.061378342E1,2.165061678E1
1.445514417E0,-5.137915649E0,1.892065430E-1,1.274255173E1,1.374069143E1
1.455554417E0,-1.454001389E1,1.418150940E0,2.983595581E0,1.491056667E1
1.465595417E0,-1.955428665E1,4.281396790E0,-7.175927582E0,2.126486354E1
1.475636417E0,-2.048714676E1,6.069578247E0,-1.217044144E1,2.459029498E1
1.485677417E0,-1.544248718E1,5.574857025E0,-1.027268784E1,1.936691913E1
1.495714292E0,-5.343138885E0,7.506739655E0,-5.398673401E0,1.067922974E1
1.505754292E0,3.628753967E0,1.169742508E1,-1.879042511E0,1.239065816E1
1.515795292E0,9.632169800E0,1.286155426E1,1.193318481E0,1.611279870E1
1.525836292E0,1.155282578E1,8.777896271E0,1.125539429E1,1.836309198E1
1.535877292E0,1.031490005E1,5.445975037E0,2.139441010E1,2.436753148E1
1.545917292E0,8.052654419E0,6.244264984E0,3.026107178E1,3.193068357E1
1.555958292E0,8.057594147E0,1.086021606E1,3.904241089E1,4.131802227E1
1.565999292E0,1.340971436E1,1.393587021E1,4.359444489E1,4.769176598E1
1.576040292E0,1.608540024E1,1.289134232E1,4.228601578E1,4.704289466E1
1.586080292E0,5.888754272E0,8.085136871E0,3.359419052E1,3.505162624E1
1.596121292E0,-8.581055603E0,2.385439453E0,1.983360580E1,2.174159046E1
1.606162292E0,-1.697529968E1,8.014334106E-1,5.859714661E0,1.797607718E1
1.616203292E0,-2.325294525E1,5.876479797E0,-6.415059814E0,2.482711159E1
1.626243292E0,-2.607682297E1,1.021715332E1,-1.383782410E1,3.123901877E1
1.636284292E0,-2.171668991E1,9.248816986E0,-1.401670212E1,2.745219799E1
1.646325292E0,-1.348979782E1,5.934708710E0,-1.054901321E1,1.812393700E1
1.656366292E0,-6.099965057E0,6.494095459E0,-6.376440125E0,1.095636063E1
1.666406292E0,1.238075409E0,8.486302643E0,-3.066523132E0,9.107893685E0
1.676447292E0,1.083372116E1,8.765771484E0,1.774559784E0,1.404839230E1
1.686488292E0,1.993734009E1,5.098547516E0,1.239572296E1,2.402387696E1
1.696529292E0,2.503019943E1,2.646496582E-1,2.210558121E1,3.339517396E1
1.706569292E0,2.609403717E1,-1.888173523E0,3.068678650E1,4.032546144E1
1.716610292E0,2.426783478E1,-9.223818970E-1,3.765614365E1,4.480807681E1
1.726651292E0,1.747825378E1,-4.309837646E0,4.236415329E1,4.603026765E1
1.736692292E0,1.026116180E0,-1.358185638E1,3.861295395E1,4.094484033E1
1.746732292E0,-1.837698486E1,-1.829495544E1,2.647319870E1,3.705737736E1
1.756773292E0,-3.076567245E1,-1.471350311E1,1.329654968E1,3.660344258E1
1.766814292E0,-2.971815079E1,-1.039094193E1,1.287023621E0,3.150867484E1
1.776855292E0,-1.931837723E1,-1.292397446E1,-5.857918396E0,2.396964794E1
1.786896292E0,-3.674858093E0,-1.565504517E1,-5.213358765E0,1.690455947E1
1.796936292E0,1.551149368E1,-1.336046677E1,-4.785548401E-1,2.047773238E1
1.806977292E0,3.279245773E1,-1.141301651E1,8.507558441E0,3.574885705E1
1.817018292E0,4.240501831E1,-1.240904526E1,2.132106262E1,4.905871679E1
1.827059292E0,3.762979843E1,-1.051847672E1,3.182067856E1,5.039043229E1
1.837099292E0,2.716341339E1,-3.982019348E0,3.899855209E1,4.769270983E1
1.847140292E0,2.229119522E1,-1.004411316E0,4.686529312E1,5.190628022E1
1.857181292E0,1.687366104E1,-1.010788055E1,4.827655838E1,5.212979738E1
1.867222292E0,2.528242493E-1,-2.068653214E1,3.847688690E1,4.368600872E1
1.877262292E0,-1.792627213E1,-2.277379166E1,2.240795242E1,3.663486250E1
1.887303292E0,-2.587833572E1,-1.752540573E1,6.016738129E0,3.182812033E1
1.897344292E0,-2.415167633E1,-1.214349747E1,-8.982071686E0,2.848588444E1
1.907385292E0,-1.592089233E1,-1.148097519E1,-1.645677795E1,2.561470563E1
1.917425292E0,-4.321962433E0,-1.396505951E1,-1.203272781E1,1.893380007E1
1.927466292E0,6.141279144E0,-1.439002579E1,-3.329376526E0,1.599602762E1
1.937507292E0,1.839060654E1,-1.008797195E1,3.474275208E0,2.126151865E1
1.947548292E0,3.284889038E1,-3.175646210E0,1.022628433E1,3.455012618E1
1.957588292E0,4.018498489E1,1.732497253E0,2.141012741E1,4.556564620E1
1.967629292E0,3.491639099E1,5.419779510E0,2.842528931E1,4.534892989E1
1.977670292E0,2.355606491E1,1.136526581E1,3.400583450E1,4.290051563E1
1.987711292E0,1.353530319E1,1.401266052E1,3.992407745E1,4.442399181E1
1.997752292E0,1.004426285E1,5.942642212E0,4.092534531E1,4.255685727E1
2.007792292E0,4.287084961E0,-3.606001282E0,3.559133743E1,3.602951072E1
2.017833292E0,-9.968370667E0,-6.245462494E0,2.480222351E1,2.745040085E1
2.027874292E0,-1.846440308E1,-1.091784622E1,8.788374481E0,2.318122242E1
2.037915292E0,-1.850631592E1,-7.526797943E0,-6.605763245E0,2.104216063E1
2.047955292E0,-1.458536957E1,3.924838257E-1,-1.589364899E1,2.157533608E1
2.057996292E0,-7.672894135E0,3.388204193E0,-1.544667847E1,1.757706198E1
2.068037292E0,3.197351074E0,4.620441742E0,-1.110106522E1,1.244207317E1
2.078078292E0,1.707454330E1,6.240522766E0,-7.315437469E0,1.959591230E1
2.088118292E0,2.789688812E1,6.828799438E0,-3.836372223E0,2.897562114E1
2.098159292E0,3.198024673E1,4.722828827E0,-9.882449341E-1,3.234220032E1
2.108200292E0,3.002935364E1,2.365081787E-2,2.543361053E0,3.013687649E1
2.118241292E0,2.560620163E1,-1.755699005E0,1.153830597E1,2.814058538E1
2.128281292E0,2.102303238E1,1.718276825E0,3.031855225E1,3.693419792E1
2.138322292E0,1.282982025E1,3.947291565E0,4.151422073E1,4.363044718E1
2.148363292E0,1.921105042E0,2.744393005E0,4.093612289E1,4.107296550E1
2.158404292E0,-1.940564575E0,-3.022664337E0,3.247900955E1,3.267703096E1
2.168444292E0,-2.518812103E0,-5.796546021E0,2.009166916E1,2.106227741E1
2.178485292E0,-6.032455444E0,-4.925207977E0,1.027104126E1,1.288962687E1
2.188526292E0,-8.707542572E0,-4.130211182E0,1.523980865E0,9.757174782E0
2.198567292E0,-5.960904236E0,-1.698068848E0,-5.209766235E0,8.096757459E0
2.208608292E0,-2.342628479E-1,4.881349182E-1,-4.528083801E0,4.560339647E0
2.218648292E0,5.485642548E0,-1.900447998E0,2.562670898E-1,5.811165939E0
2.228689292E0,1.016745667E1,-2.451152802E0,4.111799469E0,1.123798113E1
2.238730292E0,1.194560898E1,-3.566633148E0,6.770420837E0,1.418650923E1
2.248771292E0,1.160147461E1,-4.636608124E0,9.523346100E0,1.570943885E1
2.258811292E0,9.195228424E0,-2.676284637E0,1.192599976E1,1.529523440E1
2.268852292E0,5.856571198E0,4.391867065E-1,1.207284439E1,1.342556825E1
2.278893292E0,3.571722565E0,1.398990784E0,1.045830185E1,1.113958953E1
2.288934292E0,4.189936981E0,8.650511169E-1,7.651488647E0,8.766365488E0
2.298974292E0,5.953868866E0,5.062472534E-1,5.356610870E0,8.024843972E0
2.309015292E0,7.155569916E0,3.329077148E-1,4.179009705E0,8.293197844E0
2.319056292E0,7.934550018E0,-5.867797852E-2,3.488196259E0,8.667643292E0
2.329097292E0,1.775248352E1,1.347198486E-1,1.989138565E1,2.666150865E1
2.339137292E0,1.385893021E1,1.444496155E-1,1.452773941E1,2.007849657E1
2.349178292E0,1.614692230E0,1.737886047E-1,-2.779719543E-1,1.647635240E0
2.359219292E0,2.984344025E0,-8.786727905E-2,1.660407166E1,1.687036530E1
2.369260292E0,1.859283600E0,-7.583230591E-1,7.449558563E0,7.715433374E0
2.379300292E0,3.338208160E0,-1.417252808E0,1.736913071E1,1.774370144E1
2.389341292E0,1.423090668E0,-1.467548218E0,1.389635239E1,1.404590668E1
2.399382292E0,5.260061646E-1,-9.437873840E-1,1.167931274E1,1.172918425E1
2.409423292E0,-2.116598511E-1,-7.158114624E-1,9.824968872E0,9.853283680E0
2.419464292E0,-1.493893433E-1,-8.842112732E-1,8.305628357E0,8.353897842E0
2.429504292E0,-1.422042847E-1,-1.049317932E0,7.529492340E0,7.603587645E0
2.439545292E0,4.444258118E-1,-1.238823853E0,8.067772980E0,8.174421062E0
2.449586292E0,1.658551025E0,-1.618733826E0,9.614805908E0,9.890176103E0
2.459627292E0,5.396877136E0,-2.333497467E0,1.934172867E1,2.021568602E1
2.469667292E0,4.902604980E0,-2.855761414E0,2.193224167E1,2.265422992E1
2.479708292E0,2.546354828E0,-4.647834778E-1,3.789968719E0,4.589532600E0
2.489749292E0,7.381150818E-1,7.135661316E-1,5.428910522E0,5.525129859E0
2.499790542E0,-1.765129395E0,8.891510010E-2,8.063432007E0,8.254848479E0
2.509830542E0,-8.138575745E-1,-2.312690735E-1,7.119794312E0,7.169889858E0
2.519871542E0,3.546125793E-1,-7.035369873E-1,1.066906357E1,1.069811347E1
2.529912542E0,1.097517700E0,-5.887257385E-1,1.063717987E1,1.070984308E1
2.539953542E0,1.534309387E0,-5.748046875E-1,9.812844086E0,9.948689098E0
2.549993542E0,1.041534119E0,-5.405259705E-1,8.098908234E0,8.183475803E0
2.560034542E0,1.016536102E0,-2.170486450E-1,7.066804504E0,7.142841288E0
2.570075542E0,1.888622589E0,1.793270874E-1,8.577463074E0,8.784755334E0
2.580116542E0,5.048850861E0,9.267228699E-1,1.081980011E1,1.197571646E1
2.590157542E0,1.347243393E1,5.852379913E0,8.816515961E0,1.713148506E1
2.600197542E0,1.372525818E1,7.778274994E0,6.497238922E0,1.706160566E1
2.610238542E0,5.763165436E0,1.924547882E0,1.042177780E1,1.206364012E1
2.620279542E0,-4.802014160E-1,-2.171983337E0,1.362317047E1,1.380358210E1
2.630320542E0,-2.471959534E0,-8.000862122E-1,1.323906921E1,1.349161501E1
2.640360542E0,1.657054138E-1,6.503974915E-1,1.130209717E1,1.132200846E1
2.650401542E0,3.336561584E0,9.108558655E-1,8.748257904E0,9.407141860E0
2.660442542E0,8.127648468E0,1.075812836E0,9.462123413E0,1.251989706E1
2.670483542E0,8.766220551E0,-1.933978271E-1,6.222410431E0,1.075185645E1
2.680523542E0,9.055119781E0,-9.616003418E-1,4.741689606E0,1.026662017E1
2.690564542E0,1.312515610E1,5.822891235E-1,3.097359009E0,1.349823752E1
2.700605542E0,1.327843735E1,1.782942352E0,8.833131409E-1,1.342669073E1
2.710646542E0,1.316227890E1,1.334624634E0,-1.311722260E0,1.329463892E1
2.720687542E0,1.199216217E1,2.848576355E-1,1.566043396E0,1.209733811E1
2.730727542E0,8.202642517E0,-2.069446564E0,3.037034454E0,8.988299707E0
2.740768542E0,3.132386169E0,-3.288661194E0,4.297114105E0,6.252385560E0
2.750809542E0,-1.045875092E0,-3.061583405E0,6.037395172E0,6.849619560E0
2.760850542E0,-2.730771332E0,-2.457140350E0,7.037315826E0,7.938417022E0
2.770890542E0,-7.319778442E-2,-1.527723083E0,7.077432404E0,7.240811085E0
2.780931542E0,9.080267487E0,1.281335449E-1,1.023032593E1,1.367944606E1
2.790972542E0,6.199358368E0,-8.701405334E-1,7.738757172E0,9.953770707E0
2.801013542E0,6.900650024E0,-1.315314789E0,5.989045715E0,9.231342932E0
2.811053542E0,6.956034851E0,-5.547463989E-1,6.114035797E0,9.277693579E0
2.821094542E0,6.660848694E0,7.801776123E-1,5.477709045E0,8.659150005E0
2.831135542E0,3.777544556E0,9.069639587E-1,4.839885406E0,6.206199903E0
2.841176542E0,5.626799011E-1,7.081773376E-1,4.950804749E0,5.032751879E0
2.851217542E0,-1.701511688E0,4.420307922E-1,4.477938080E0,4.810661357E0
2.861257542E0,-4.880451050E0,4.976700897E0,5.005186661E1,5.053489592E1
2.871298542E0,-2.150727539E0,3.356021118E-1,-2.512674866E0,3.324423665E0
2.881339542E0,-2.686313782E0,-2.615810394E0,1.444226715E1,1.492105312E1
2.891380542E0,-2.401007080E-1,-1.178798676E0,1.107546844E1,1.114061111E1
2.901420542E0,-9.171427917E-1,-7.225474548E-1,6.621480560E0,6.723632243E0
2.911461542E0,-4.683760071E-1,1.255738678E0,1.118459152E1,1.126460577E1
2.921502542E0,8.270301819E-1,2.295775909E0,1.034423904E1,1.062816293E1
2.931543542E0,1.977537689E0,1.667083282E0,9.077722778E0,9.439008042E0
2.941583542E0,2.611768799E0,9.410929871E-1,9.857601013E0,1.024105903E1
2.951624542E0,1.566791840E0,2.092648315E-1,9.854158173E0,9.980133352E0
2.961665542E0,5.200186157E-1,-9.340576172E-2,1.000249969E1,1.001644369E1
2.971706542E0,-7.140151978E-2,2.010319519E-1,9.504784698E0,9.507178561E0
2.981747542E0,4.526586914E-1,1.380579071E0,9.796528015E0,9.903679095E0
2.991787542E0,3.267704773E-1,1.403182068E0,9.931696930E0,1.003565159E1
3.001828542E0,4.281097412E-2,5.011578369E-1,9.486672363E0,9.499997078E0
3.011869542E0,-1.183289337E0,-9.111552429E-1,9.746382294E0,9.860139215E0
3.021910542E0,-3.821553040E0,-2.593806152E0,1.066502197E1,1.162216811E1
3.031950542E0,-1.003962250E0,-7.912545776E-1,1.133472931E1,1.140658198E1
3.041991542E0,4.147874451E0,5.227130127E0,1.070034851E1,1.261051982E1
3.052032542E0,5.536836090E0,9.646390228E0,1.086485641E1,1.554845662E1
3.062073542E0,2.438878326E0,5.907315674E0,2.338212662E1,2.423980922E1
3.072113542E0,-1.607656860E-1,1.874551849E0,1.640408752E1,1.651162856E1
3.082154542E0,1.663490753E0,1.548978882E0,1.055814423E1,1.080004382E1
3.092195542E0,6.285579071E0,-1.062789917E-1,1.113279922E1,1.278510923E1
3.102236542E0,6.243965607E0,-2.335892487E0,9.339228973E0,1.147452387E1
3.112277542E0,5.420228577E0,-3.029699707E0,6.089187469E0,8.696905322E0
3.122317542E0,1.775308228E0,-2.658621368E0,4.341571655E0,5.391588942E0
3.132358542E0,-2.203417969E0,-2.944377136E0,4.214485931E0,5.593415694E0
3.142399542E0,-3.214714966E0,-3.051254883E0,3.689527588E0,5.766902331E0
3.152440542E0,-9.026229858E-1,-1.513203278E0,8.675958252E-1,1.963984453E0
3.162480542E0,5.206922150E0,4.625381470E-2,-2.780617676E0,5.903051105E0
3.172521542E0,1.088162155E1,-6.824308777E-1,-4.020040283E0,1.162050444E1
3.182562542E0,9.262887726E0,-3.312312012E0,-1.461111603E0,9.945217293E0
3.192603542E0,3.482358398E0,-4.885390778E0,2.785856781E0,6.614745730E0
3.202643542E0,-6.670129395E-1,-5.557942200E0,6.497089233E0,8.576001181E0
3.212684542E0,-4.933740234E0,-2.866089935E0,8.871601410E0,1.054806029E1
3.222725542E0,-9.862241364E0,2.393672333E0,7.985144806E0,1.291340426E1
3.232766542E0,-9.959239655E0,8.458759918E0,9.861193542E0,1.637010116E1
3.242807542E0,3.559298401E0,1.183738403E1,3.935810440E1,4.125351679E1
3.252847542E0,1.237865845E1,2.686164093E0,8.006550293E0,1.498504288E1
3.262888542E0,1.124880798E1,-3.978726196E-1,7.212301941E0,1.336829394E1
3.272929542E0,9.356892242E0,-5.014721832E0,6.169869690E0,1.227868721E1
3.282970542E0,1.042207718E1,-5.342091064E0,8.069868622E0,1.422253175E1
3.293010542E0,5.072651367E0,-9.309141541E-1,1.384096756E1,1.477060513E1
3.303051542E0,1.563798065E0,1.942211151E0,1.730431549E1,1.748304845E1
3.313092542E0,-3.445684662E0,3.921245728E0,1.432057022E1,1.524229780E1
3.323133542E0,-6.101911011E0,5.561385040E0,1.172377029E1,1.433907638E1
3.333173542E0,-5.521717529E0,3.522025909E0,6.193670197E0,9.014187788E0
3.343214542E0,-5.893244934E0,-1.106199646E-1,7.361990662E0,9.430879022E0
3.353255542E0,-3.484304352E0,-2.723735962E0,7.591762848E0,8.786010331E0
3.363296542E0,-1.901046753E-1,-3.693718872E0,6.557264099E0,7.528440168E0
3.373337542E0,7.469467163E-2,-3.062331848E0,6.485862579E0,7.172856407E0
3.383377542E0,-9.626481628E-1,-1.821711731E0,6.643035736E0,6.955231765E0
3.393418542E0,-4.924758911E-1,-3.293151855E-1,8.405770111E0,8.426621634E0
3.403459542E0,-1.729503479E0,1.580263824E0,9.594897308E0,9.876764166E0
3.413500542E0,-2.738405457E0,4.900958405E0,1.381701736E1,1.491402785E1
3.423540542E0,4.720284119E0,6.923851776E0,1.880808838E1,2.059041024E1
3.433581542E0,8.623567200E0,4.891977081E0,1.511781235E1,1.807887168E1
3.443622542E0,8.062533875E0,1.753004608E0,1.774948975E1,1.957349902E1
3.453663542E0,1.029394363E1,-1.227447510E-2,1.094583801E1,1.502587089E1
3.463704542E0,9.678573303E0,-8.063731384E-1,8.564589844E0,1.294902382E1
3.473744542E0,7.033274231E0,-5.849835205E-1,6.319408722E0,9.473335142E0
3.483785542E0,3.619173889E0,-4.659809875E-1,4.950205994E0,6.149804655E0
3.493827000E0,5.593867493E-1,-1.082997894E0,3.845802612E0,4.034351956E0
3.503868000E0,-1.226250000E0,-1.631008301E0,3.003354492E0,3.630979943E0
3.513908000E0,-1.732946320E0,-2.266137543E0,2.791994019E0,3.991705514E0
3.523949000E0,-1.009650421E0,-2.042801971E0,2.781665497E0,3.595844380E0
3.533990000E0,1.226549377E0,3.339405670E0,7.419920197E0,8.228685759E0
3.544031000E0,-4.625531158E0,8.325237579E0,3.949177643E1,4.062395260E1
3.554072000E0,-7.080426178E0,4.854554901E0,9.358389130E0,1.269955059E1
3.564112000E0,-2.985990601E0,-6.574328613E-1,5.590424652E0,6.371907534E0
3.574153000E0,-2.760110321E0,-3.353925476E0,6.890920258E0,8.145661856E0
3.584194000E0,4.287084961E-1,-3.195554810E0,8.311017151E0,8.914503217E0
3.594235000E0,2.886746979E0,-6.095324707E-1,1.098999619E1,1.137914118E1
3.604275000E0,5.785319366E0,2.367177429E0,1.414588348E1,1.546542818E1
3.614316000E0,5.405110016E0,3.379671936E0,7.324718170E0,9.710246802E0
3.624357000E0,4.511318665E0,1.684596863E0,1.286005737E1,1.373211340E1
3.634398000E0,7.334747314E-1,8.824150085E-1,1.638043671E1,1.642057697E1
3.644438000E0,-2.646795959E0,1.510359192E-1,1.633298538E1,1.654674446E1
3.654479000E0,-1.236129456E0,-1.200952606E0,9.910441132E0,1.005918220E1
3.664520000E0,1.537003784E0,-8.111631775E-1,1.182466049E1,1.195169285E1
3.674561000E0,3.633693695E0,3.147953796E-1,1.059406952E1,1.120433554E1
3.684602000E0,6.007457428E0,3.050656128E-1,9.396859131E0,1.115722059E1
3.694642000E0,4.352947998E0,1.315763855E-1,8.943601685E0,9.947536364E0
3.704683000E0,1.317410431E0,1.856140137E-2,8.274493103E0,8.378732057E0
3.714724000E0,-1.630409546E0,-6.099815369E-1,6.657405853E0,6.881232844E0
3.724765000E0,-3.775897980E0,-9.894424438E-2,6.560856628E0,7.570471268E0
3.734805000E0,-5.828579407E0,5.257067871E-1,5.384153595E0,7.952220788E0
3.744846000E0,-5.192552032E0,8.885522461E-1,4.541855164E0,6.955614281E0
3.754887000E0,-2.212698669E0,8.246351624E-1,4.926106110E0,5.462836256E0
3.764928000E0,-8.652008057E-2,-1.601669312E-1,5.824687500E0,5.827531522E0
3.774969000E0,1.161584473E0,-8.315208435E-1,7.690407715E0,7.821961149E0
3.785009000E0,2.672093353E0,1.107696533E-1,9.306147766E0,9.682806362E0
3.795050000E0,6.446793823E0,1.647623749E0,1.029633865E1,1.225929869E1
3.805091000E0,1.310030777E1,2.767445068E0,3.320649673E1,3.580430479E1
3.815132000E0,1.977881973E1,4.767436066E0,7.580685883E0,2.171167785E1
3.825172000E0,2.364213593E1,3.902534637E0,-3.290158081E-1,2.396431971E1
3.835213000E0,1.402059402E1,-3.503165131E0,1.033301239E1,1.776570764E1
3.845254000E0,8.966504059E0,-8.871751099E0,1.288191193E1,1.802913801E1
3.855295000E0,-3.211122437E0,-2.598895569E0,2.554752365E1,2.587936495E1
3.865335000E0,-7.613168335E0,6.325695648E0,4.257446594E0,1.077499926E1
3.875376000E0,-1.290092239E1,3.571123810E0,4.321363678E0,1.406630399E1
3.885417000E0,-1.286305115E1,-8.397537231E-1,1.065798660E1,1.672590654E1
3.895458000E0,-7.384144592E0,2.010319519E-1,1.416549271E1,1.597583140E1
3.905499000E0,2.434537354E0,3.249293060E0,1.737616608E1,1.784421545E1
3.915539000E0,6.321654053E0,2.705174561E0,7.209008789E0,9.962483982E0
3.925580000E0,6.667884064E0,-1.382375336E0,5.508844299E0,8.758938576E0
3.935621000E0,3.575464783E0,-1.946552124E0,6.657256165E0,7.803337313E0
3.945662000E0,5.493576050E-2,3.319347382E0,1.224932739E1,1.269122163E1
3.955702000E0,-2.502945099E0,2.655328217E0,1.656769730E1,1.696478988E1
3.965743000E0,-2.425705719E0,1.598525848E0,1.682097061E1,1.706998493E1
3.975784000E0,-1.054407349E0,3.483256531E-1,1.279344589E1,1.284154833E1
3.985825000E0,1.131646729E-1,-1.786385193E0,9.068591766E0,9.243556400E0
3.995866000E0,8.922944641E-1,-4.058061218E-1,6.224206696E0,6.300921917E0
4.005906000E0,4.114942932E-1,7.969427490E-1,4.205504608E0,4.300083058E0
4.015947000E0,-8.415499878E-1,5.602848816E-1,2.556533661E0,2.749179858E0
4.025988000E0,-1.960173798E0,8.807684326E-1,3.468736725E0,4.080461838E0
4.036029000E0,-2.343077545E0,1.069974976E0,6.365363159E0,6.866782870E0
4.046069000E0,-2.491718445E0,1.062789917E0,8.577463074E0,8.995057309E0
4.056110000E0,-2.988535309E0,1.026265869E0,1.086665268E1,1.131674447E1
4.066151000E0,-3.203188934E0,1.092428284E0,1.237701187E1,1.283137724E1
4.076192000E0,3.753444672E0,3.205733643E0,3.722309418E1,3.754895225E1
4.086233000E0,1.261831009E1,4.960085449E0,1.307785446E1,1.883758144E1
4.096273000E0,1.921374481E1,2.578088837E0,1.045785278E1,2.202682947E1
4.106314000E0,1.886976013E1,-1.366508331E0,1.463162338E1,2.391693114E1
4.116355000E0,1.780697021E1,-2.516267395E0,7.533384247E0,1.949799138E1
4.126396000E0,1.070304291E1,-2.191891937E0,4.557722168E0,1.183775102E1
4.136436000E0,1.492845612E0,-1.389710083E0,3.523971863E0,4.071640925E0
4.146477000E0,-3.393592987E0,-1.072070618E0,4.451742554E0,5.699457916E0
4.156518000E0,-5.684878235E0,-9.237290955E-1,5.498366089E0,7.962609223E0
4.166559000E0,-4.506079559E0,2.544708252E-3,7.037166138E0,8.356223233E0
4.176600000E0,-4.954696655E-2,1.720372467E0,9.836644592E0,9.986075964E0
4.186640000E0,3.754193115E0,5.813909912E0,4.323893417E1,4.378927886E1
4.196681000E0,-7.518265686E0,6.741231537E0,8.757388916E0,1.336639002E1
4.206722000E0,-1.359308304E1,4.059258728E0,4.066743164E0,1.475763829E1
4.216763000E0,-2.753823395E0,3.658092957E0,2.688708801E0,5.309834497E0
4.226803000E0,-8.047265625E-1,-1.069376221E0,2.583926697E0,2.909953181E0
4.236844000E0,-6.550378418E-1,-6.282585297E0,6.715185699E0,9.219201243E0
4.246885000E0,-4.679269409E-1,-3.462898865E0,7.775730286E0,8.524822910E0
4.256926000E0,-2.506687317E0,1.728904724E-1,7.878117371E0,8.269105497E0
4.266967000E0,-3.960015106E0,9.211843872E-1,8.895701294E0,9.780787383E0
4.277007000E0,3.276237030E0,3.839964752E0,2.971470795E1,3.014038697E1
4.287048000E0,1.401580399E1,5.509592743E0,1.922377396E1,2.442031651E1
4.297089000E0,1.524908936E1,3.171005859E0,1.292756699E1,2.024134364E1
4.307130000E0,1.134715347E1,-3.697311401E-1,1.068433182E1,1.559004617E1
4.317171000E0,1.483445160E1,-1.867516479E0,8.586743774E0,1.724183113E1
4.327211000E0,1.372331223E1,-2.403851166E0,6.115981750E0,1.521555229E1
4.337252000E0,5.858517151E0,-2.589315491E0,5.177283783E0,8.235960496E0
4.347293000E0,-1.765279083E0,-3.344644775E0,5.976322174E0,7.072431381E0
4.357334000E0,-7.865693207E0,-2.861898651E0,8.375682678E0,1.184110020E1
4.367374000E0,-1.427237045E1,2.832409973E0,1.790950699E1,2.307538830E1
4.377415000E0,-1.587104599E1,7.098239136E0,2.313079926E1,2.893629164E1
4.387456000E0,-7.559729462E0,4.753365326E0,7.036567383E0,1.136913682E1
4.397497000E0,-1.002824615E1,-3.155438232E0,7.411088562E0,1.286261035E1
4.407538000E0,-6.962321777E0,-6.579118652E0,9.970915375E0,1.382670894E1
4.417578000E0,-2.143243103E0,-1.478625183E0,7.276518402E0,7.728359689E0
4.427619000E0,-1.802252197E-1,1.863474884E0,6.754703522E0,7.009353711E0
4.437660000E0,1.479972382E0,1.210233307E0,8.901838531E0,9.104818073E0
4.447701000E0,1.159069702E1,2.526446228E0,2.602233627E1,2.859876174E1
4.457741000E0,1.903531586E1,3.433410187E0,6.957382050E0,2.055569800E1
4.467782000E0,1.763872009E1,1.959425354E0,3.043471069E0,1.800629086E1
4.477823000E0,1.467727844E1,-4.904101868E0,5.680237885E0,1.648447209E1
4.487864000E0,8.911268921E0,-6.871909790E0,8.060737610E0,1.384230287E1
4.497904167E0,-3.025358734E0,-2.365081787E-2,2.024330383E1,2.046813877E1
4.507944167E0,-1.342528198E1,6.389912109E0,2.584600296E1,2.981752911E1
4.517985167E0,-1.387988663E1,3.389252014E0,8.212521973E0,1.647979973E1
4.528026167E0,-1.366702927E1,-2.089055786E0,8.289761353E0,1.612054547E1
4.538067167E0,-1.121378082E1,-3.399580536E0,8.706794128E0,1.459843458E1
4.548107167E0,-3.916755066E0,-1.218316498E0,9.393865356E0,1.025036447E1
4.558148167E0,8.678952026E-1,1.763333130E0,8.932075653E0,9.145740062E0
4.568189167E0,1.916165314E0,1.822310486E0,8.878337402E0,9.263767055E0
4.578230167E0,9.853409729E0,2.848426666E0,7.423363037E0,1.266134023E1
4.588271167E0,1.974738510E1,2.161954193E0,2.218371872E1,2.977835859E1
4.598311167E0,1.802791077E1,1.134790192E0,9.125772858E0,2.023791110E1
4.608352167E0,1.645692764E1,-2.629132690E0,7.169490967E0,1.814233741E1
4.618393167E0,8.444689178E0,-3.566932526E0,8.149353333E0,1.226571411E1
4.628434167E0,-4.962181091E-1,-1.212478638E0,6.946155396E0,7.068621622E0
4.638475167E0,-6.069278870E0,1.902693329E0,5.788762207E0,8.600357887E0
4.648515167E0,-1.827953751E1,4.245022430E0,1.692380676E1,2.527007998E1
4.658556167E0,-1.383303406E1,4.053570557E0,2.534753952E1,2.915959577E1
4.668597167E0,-1.111678253E1,3.978726196E-1,1.948947144E0,1.129334102E1
4.678638167E0,-1.068882248E1,-5.588478699E0,1.068717590E1,1.611514036E1
4.688678167E0,-3.949686584E0,-2.320923615E0,9.764344940E0,1.078559885E1
4.698719167E0,1.157991943E0,2.229164429E0,8.567433929E0,8.928104140E0
4.708760167E0,4.921016693E0,3.327729950E0,1.582718719E1,1.690532598E1
4.718801167E0,1.554217987E1,4.217479706E0,1.856514359E1,2.457663619E1
4.728842167E0,1.934906342E1,3.395538940E0,5.634133759E0,2.043671703E1
4.738882167E0,1.552780975E1,5.066963196E-1,6.391109619E0,1.679928269E1
4.748923167E0,1.133188522E1,-3.365750885E0,8.265960846E0,1.442449342E1
4.758964167E0,3.294049988E0,-2.209555206E0,7.688461761E0,8.651320349E0
4.769005167E0,-3.631747742E0,-1.386117554E-1,6.806645508E0,7.716166661E0
4.779045167E0,-8.198750610E0,8.078700256E-1,9.421707458E0,1.251561972E1
4.789086167E0,-1.308294388E1,3.477119293E0,1.854388779E1,2.295930211E1
4.799127167E0,-1.025906616E1,4.179009705E0,1.243778549E1,1.665566176E1
4.809168167E0,-9.027427368E0,-3.924838257E-1,9.178612976E0,1.288003977E1
4.819209167E0,-7.569608917E0,-2.707719269E0,1.188752975E1,1.435075212E1
4.829249167E0,-1.915865936E0,-1.646575928E-2,1.729234039E1,1.739815650E1
4.839290167E0,7.287894745E0,3.388353882E0,1.979812958E1,2.136727139E1
4.849331167E0,1.490510468E1,2.824626160E0,6.010002136E0,1.631749932E1
4.859372167E0,1.457070007E1,3.775149536E-1,6.016139374E0,1.576837820E1
4.869413167E0,1.253867569E1,-3.562890930E0,8.166567535E0,1.538198313E1
4.879453167E0,5.926775208E0,-3.229234772E0,7.958799591E0,1.043537793E1
4.889494167E0,-1.394051056E0,-3.258723450E-1,7.454498291E0,7.590725651E0
4.899535167E0,-5.593867493E0,5.150788879E-1,8.289461975E0,1.001358276E1
4.909576167E0,-7.940687256E0,9.916877747E-1,1.175176208E1,1.421766053E1
4.919616167E0,-1.005953110E1,2.284998322E0,1.254436386E1,1.624119601E1
4.929657167E0,-1.063313828E1,3.896397400E-1,1.765623367E1,2.061451033E1
4.939698167E0,-1.074705139E1,-8.247848511E-1,2.041978683E1,2.308997787E1
4.949739167E0,-9.990075531E0,-1.445693665E0,2.082694016E1,2.314418016E1
4.959780167E0,-8.209977264E0,-2.207010498E0,2.114472931E1,2.278978279E1
4.969820167E0,-6.825955353E0,-2.865341492E0,2.014750305E1,2.146452253E1
4.979861167E0,-2.279310150E0,-3.548670502E0,1.851469849E1,1.898900674E1
4.989902167E0,2.004032593E0,-3.888613586E0,1.485376144E1,1.548456300E1
4.999943167E0,1.883233795E0,-4.017345886E0,1.060903839E1,1.149944925E1
5.009984167E0,-1.213227081E0,-3.689527588E0,7.679929504E0,8.606151926E0
5.020024167E0,-4.637356567E0,-2.737357635E0,5.825585632E0,7.933199274E0
5.030065167E0,-7.210954742E0,-1.771865387E0,4.682412872E0,8.778517275E0
5.040106167E0,-8.984317017E0,-1.033151550E0,4.377796326E0,1.004741037E1
5.050147167E0,-9.444310455E0,-1.913021851E-1,4.731061707E0,1.056477834E1
5.060187167E0,-7.874973907E0,1.318757629E0,5.304219818E0,9.585879386E0
5.070228167E0,-5.063220978E0,2.651136932E0,6.050418091E0,8.322997824E0
5.080269167E0,-2.449955292E0,2.847229156E0,6.712042236E0,7.691586688E0
5.090310167E0,-1.574725342E-1,2.514920197E0,7.107968903E0,7.541408563E0
5.100351167E0,1.528321838E0,2.586471405E0,6.914571075E0,7.539024813E0
5.110391167E0,2.422562256E0,2.775079193E0,6.284231873E0,7.284328565E0
5.120432167E0,2.926863556E0,3.350632324E0,5.575306091E0,7.132832906E0
5.130473167E0,3.559148712E0,3.855532379E0,5.482199707E0,7.588621951E0
5.140514167E0,4.066443787E0,3.793561249E0,5.751340027E0,8.000311502E0
5.150555167E0,4.199966125E0,4.242178345E0,5.689668274E0,8.246703440E0
5.160595167E0,4.229604492E0,5.395829315E0,5.224136353E0,8.619520218E0
5.170636167E0,4.354295197E0,6.562802582E0,4.821473694E0,9.234547794E0
5.180677167E0,4.916376343E0,7.919431458E0,6.876550140E0,1.158339729E1
5.190718167E0,2.890638885E0,7.825576630E0,6.085295563E0,1.032599946E1
5.200758167E0,2.784060516E0,9.398805084E0,1.011012589E1,1.408201603E1
5.210799167E0,7.496710510E0,1.099523529E1,1.443463303E1,1.963299514E1
5.220840167E0,1.716136276E1,1.054332504E1,1.804766968E1,2.704426844E1
5.230881167E0,1.035516632E1,1.098745148E1,1.508443176E1,2.134229700E1
5.240922167E0,4.517605591E-1,5.939049683E0,9.660460968E0,1.134904863E1
5.250962167E0,-1.093176727E0,4.201013947E0,7.190447388E0,8.399171815E0
5.261003167E0,-8.382568359E-1,2.889291687E0,3.615581360E0,4.703520973E0
5.271044167E0,2.287543030E0,2.448159027E0,2.981200562E0,4.484851449E0
5.281085167E0,4.461622009E0,4.752167816E0,4.733456726E0,8.055729792E0
5.291126167E0,4.343218231E0,6.979236603E0,4.691394196E0,9.464801512E0
5.301166167E0,4.056414642E0,7.201973419E0,4.375700684E0,9.352522513E0
5.311207167E0,3.279829559E0,6.256539459E0,2.910397797E0,7.640155972E0
5.321248167E0,1.810934143E0,5.537734222E0,1.860481110E0,6.116156697E0
5.331289167E0,6.375242615E-1,4.916825409E0,3.418591003E0,6.022322952E0
5.341329167E0,2.140548706E-2,3.719615021E0,3.652704163E0,5.213275534E0
5.351370167E0,-3.200344849E-1,3.725003815E0,4.637356567E0,5.956773575E0
5.361411167E0,-1.109193420E-1,4.611161041E0,4.979994049E0,6.787889950E0
5.371452167E0,1.300196228E0,4.751569061E0,5.792953491E0,7.604355918E0
5.381493167E0,1.386865997E0,4.872068481E0,7.146139526E0,8.759438265E0
5.391533167E0,9.660910034E-1,4.488715668E0,7.855065308E0,9.098568632E0
5.401574167E0,1.753453674E0,3.629652100E0,8.222401428E0,9.157339100E0
5.411615167E0,2.320324860E0,3.308569794E0,8.218359833E0,9.158164656E0
5.421656167E0,2.343825989E0,3.561992798E0,8.684191132E0,9.674527821E0
5.431697167E0,2.342927856E0,4.014801178E0,9.549841003E0,1.062108293E1
5.441737167E0,2.037862244E0,4.620890808E0,1.068942123E1,1.182240418E1
5.451778167E0,2.087409210E0,5.074447632E0,1.155507111E1,1.279167558E1
5.461819167E0,1.907183990E0,5.304818573E0,1.198886902E1,1.324807274E1
5.471860167E0,1.508413239E0,5.347779236E0,1.175999496E1,1.300659582E1
5.481900167E0,1.628313904E0,5.370831299E0,1.095631622E1,1.231008124E1
5.491941167E0,1.581161957E0,5.512137451E0,1.010982651E1,1.162292237E1
5.501982375E0,1.093775482E0,5.611530762E0,9.416468353E0,1.101614717E1
5.512023375E0,5.887257385E-1,5.752537537E0,8.563991089E0,1.033345196E1
5.522064375E0,7.529342651E-2,5.848787384E0,7.724387054E0,9.689176349E0
5.532104375E0,-4.656816101E-1,5.813909912E0,7.408843231E0,9.429176308E0
5.542145375E0,-1.230291595E0,5.693111115E0,8.037984924E0,9.926446152E0
5.552186375E0,-1.948049011E0,5.633684692E0,9.530082092E0,1.124080793E1
5.562227375E0,-1.782343597E0,5.361550598E0,1.208511887E1,1.334065484E1
5.572268375E0,-3.954776001E-1,5.962251434E0,1.127156067E1,1.275746545E1
5.582308375E0,5.953120422E-1,5.960455170E0,1.018332367E1,1.181446161E1
5.592349375E0,-1.646575928E-3,5.208718414E0,9.590107269E0,1.091333623E1
5.602390375E0,-5.098397827E-1,5.132077789E0,8.318052521E0,9.787142421E0
5.612431375E0,-6.929090881E-1,5.452561340E0,7.431446228E0,9.243210547E0
5.622472375E0,-9.107061768E-1,5.717360687E0,7.065457306E0,9.134455972E0
5.632512375E0,-1.079854431E0,5.836512909E0,6.973548431E0,9.157584084E0
5.642553375E0,-1.186432800E0,5.824388123E0,7.093598785E0,9.254742758E0
5.652594375E0,-1.315763855E0,5.792504425E0,7.407196655E0,9.494783006E0
5.662635375E0,-1.289418640E0,5.860762482E0,7.865543518E0,9.893326646E0
5.672675375E0,-1.126257935E0,5.938750305E0,8.213719482E0,1.019815669E1
5.682716375E0,-9.707313538E-1,5.803880768E0,8.159083099E0,1.005972109E1
5.692757375E0,-8.063731384E-1,5.735473022E0,7.763904877E0,9.686284497E0
5.702798375E0,-5.677693176E-1,5.786666565E0,7.220085754E0,9.270248661E0
5.712839375E0,-4.758604431E-1,5.772296448E0,7.012766876E0,9.095314657E0
5.722879375E0,-3.691323853E-1,5.839207306E0,7.114405518E0,9.211263027E0
5.732920375E0,-2.856060791E-1,5.882916412E0,7.230264587E0,9.325610026E0
5.742961375E0,-3.212319946E-1,5.852679291E0,7.296726379E0,9.359447672E0
5.753002375E0,-4.146377563E-1,5.799390106E0,7.425608368E0,9.431039694E0
5.763043375E0,-4.661306763E-1,5.841302948E0,7.639663239E0,9.628216467E0
5.773083375E0,-4.707710266E-1,5.888604584E0,7.815248108E0,9.796703134E0
5.783124375E0,-5.553451538E-1,5.932613068E0,7.832013245E0,9.840972387E0
5.793165375E0,-5.652246094E-1,5.917344818E0,7.915838928E0,9.899240097E0
5.803206375E0,-4.541555786E-1,5.875731354E0,8.100704498E0,1.001757903E1
5.813246375E0,-2.131567383E-1,5.815406799E0,8.325536957E0,1.015770435E1
5.823287375E0,6.855743408E-2,5.754034424E0,8.432414703E0,1.020878200E1
5.833328375E0,2.327659607E-1,5.638624420E0,8.363258514E0,1.008921991E1
5.843369375E0,2.549198914E-1,5.625302124E0,8.232280884E0,9.973938875E0
5.853410375E0,2.817141724E-1,5.652246094E0,8.121361542E0,9.898674763E0
5.863450375E0,2.335144043E-1,5.674250336E0,8.099506989E0,9.892100854E0
5.873491375E0,2.992277527E-1,5.848488007E0,8.218509521E0,1.009149384E1
5.883532375E0,6.286926270E-2,5.871540070E0,8.397537231E0,1.024683204E1
5.893573375E0,-2.706372070E-1,5.843248901E0,8.508306885E0,1.032511929E1
5.903614375E0,-4.881349182E-1,5.846092987E0,7.575297089E0,9.581242346E0
5.913654375E0,-1.338666229E0,6.108347626E0,3.633993073E0,7.232554434E0
5.923695375E0,-2.692900085E-1,6.800807648E0,6.543193359E0,9.441233029E0
5.933736375E0,-5.144801331E-1,6.282884674E0,8.816066895E0,1.083800559E1
5.943777375E0,-1.334624634E0,5.638025665E0,8.735833740E0,1.048252581E1
5.953818375E0,-1.239721985E0,5.682782593E0,9.129964142E0,1.082530248E1
5.963858375E0,-9.969268799E-1,6.044280853E0,8.913214874E0,1.081538689E1
5.973899375E0,-7.238946533E-1,6.317612457E0,7.710316315E0,9.994259768E0
5.983940375E0,-1.094673615E0,6.017187195E0,6.572981415E0,8.978247977E0